,AccelX,AccelY,AccelZ,GyroX,GyroY,GyroZ,Mode
0,9.56,0.26,3.62,-1.25,-0.26,0.12,1.0
1,10.07,-0.23,1.78,-1.12,-0.12,0.02,1.0
2,10.78,0.3,2.34,-0.64,0.21,-0.24,1.0
3,9.26,-0.07,4.1,-0.03,0.58,0.53,1.0
4,9.93,0.19,1.86,-0.76,0.07,-0.47,1.0
5,10.16,0.86,4.47,-0.75,-0.01,-0.21,1.0
6,9.79,0.24,3.11,-0.76,-0.05,-0.06,1.0
7,10.32,0.59,3.09,-0.59,-0.04,-0.1,1.0
8,9.61,0.64,4.35,-0.75,0.14,-0.06,1.0
9,9.31,0.67,4.09,-0.5,0.19,0.04,1.0
10,9.25,0.51,4.12,-0.46,0.2,0.09,1.0
11,9.69,0.7,3.24,-0.85,0.26,0.21,1.0
12,9.88,0.1,3.39,-0.8,0.12,0.23,1.0
13,9.5,0.38,4.19,-0.67,-0.43,0.16,1.0
14,9.68,-0.06,3.11,-0.65,-0.32,0.04,1.0
15,9.76,-0.15,3.73,-0.42,-0.0,0.02,1.0
16,9.66,-0.02,3.77,-0.59,-0.29,-0.04,1.0
17,9.71,0.21,3.52,-0.56,-0.08,-0.05,1.0
18,9.81,0.15,3.6,-0.62,0.02,-0.03,1.0
19,9.85,0.23,3.38,-0.54,0.03,-0.05,1.0
20,7.96,0.66,3.49,-0.8,0.66,0.06,1.0
21,9.65,0.34,4.53,-0.66,0.23,0.0,1.0
22,9.33,0.28,4.64,-0.61,0.28,0.05,1.0
23,9.12,0.2,5.02,-0.64,-0.26,-0.01,1.0
24,9.81,0.02,3.35,-0.58,-0.02,-0.06,1.0
25,9.05,0.5,4.33,-0.72,-0.34,-0.07,1.0
26,9.67,0.34,4.26,-0.68,0.11,-0.02,1.0
27,9.67,0.32,3.55,-0.6,0.44,-0.2,1.0
28,8.95,0.68,6.2,-0.45,1.1,-0.3,1.0
29,9.77,0.38,3.76,-0.53,-0.42,0.22,1.0
30,9.48,0.45,4.19,-0.58,-0.17,0.03,1.0
31,9.77,0.29,3.88,-0.54,-0.28,0.07,1.0
32,9.69,0.16,3.69,-0.6,0.1,-0.05,1.0
33,9.75,0.34,3.45,-0.57,0.01,-0.03,1.0
34,9.07,0.17,3.49,-0.64,0.12,-0.01,1.0
35,9.4,0.02,4.47,-0.65,0.3,0.01,1.0
36,9.39,-0.0,4.78,-0.64,0.24,-0.03,1.0
37,9.85,-0.18,4.06,-0.55,-0.2,0.05,1.0
38,9.32,-0.12,4.13,-0.5,-0.23,-0.0,1.0
39,10.0,-0.18,3.9,-0.62,-0.07,-0.08,1.0
40,9.45,0.11,3.58,-0.73,-0.12,-0.09,1.0
41,10.56,0.27,3.37,-0.76,0.11,-0.14,1.0
42,9.79,-0.27,3.21,-0.63,0.37,-0.03,1.0
43,9.71,-0.37,3.14,-0.64,-0.01,0.15,1.0
44,9.7,-0.37,2.94,-0.65,-0.0,0.16,1.0
45,9.58,-0.44,4.09,-0.47,0.19,0.03,1.0
46,10.03,-0.51,2.82,-0.56,0.27,0.14,1.0
47,9.61,-0.74,3.57,-0.59,-0.24,-0.06,1.0
48,10.15,-0.41,2.94,-0.55,-0.27,0.0,1.0
49,9.65,-0.5,2.86,-0.61,-0.17,-0.02,1.0
50,10.05,-0.27,2.73,-0.58,-0.15,-0.02,1.0
51,10.27,-0.4,2.42,-0.58,-0.04,-0.06,1.0
52,9.35,-0.1,2.71,-0.69,0.24,-0.05,1.0
53,9.72,0.15,3.96,-0.62,0.3,-0.12,1.0
54,9.66,0.08,4.17,-0.66,0.23,-0.01,1.0
55,9.31,0.19,3.73,-0.7,0.09,-0.02,1.0
56,9.95,0.08,2.85,-0.59,-0.1,-0.06,1.0
57,9.86,0.08,2.84,-0.59,-0.06,-0.06,1.0
58,9.94,0.2,2.64,-0.65,-0.01,-0.0,1.0
59,10.18,0.13,2.56,-0.67,-0.02,0.03,1.0
60,10.05,-0.43,3.04,-0.63,-0.69,0.07,1.0
61,9.94,-0.37,2.69,-0.6,-0.08,-0.03,1.0
62,10.29,-0.47,1.8,-0.63,0.58,-0.07,1.0
63,9.82,-0.24,3.13,-0.62,-0.65,0.05,1.0
64,9.8,-0.21,3.17,-0.64,-0.0,-0.06,1.0
65,10.01,-0.26,2.95,-0.68,0.04,-0.09,1.0
66,9.88,-0.27,3.04,-0.63,0.11,-0.05,1.0
67,9.99,-0.16,3.15,-0.6,0.05,-0.01,1.0
68,10.59,-0.43,2.68,-0.63,-0.1,0.01,1.0
69,10.1,-0.23,2.48,-0.6,-0.22,0.05,1.0
70,9.79,-0.3,2.58,-0.58,-0.22,-0.0,1.0
71,9.9,-0.27,2.19,-0.58,-0.21,0.0,1.0
72,10.25,-0.85,2.02,-0.66,-0.07,-0.05,1.0
73,9.47,-0.6,2.18,-0.74,0.07,-0.13,1.0
74,10.26,-0.07,1.38,-0.65,-0.48,-0.18,1.0
75,10.77,-0.0,1.27,-0.65,-0.23,-0.2,1.0
76,8.81,0.12,1.35,-0.8,0.2,0.06,1.0
77,10.3,0.11,2.23,-0.45,0.74,0.14,1.0
78,10.01,-0.01,2.27,-0.61,-0.05,0.09,1.0
79,10.02,0.07,1.19,-0.72,0.18,-0.03,1.0
80,9.73,0.14,1.7,-0.63,0.14,-0.07,1.0
81,9.92,0.11,2.82,-0.55,-0.13,-0.05,1.0
82,9.86,0.1,2.38,-0.58,-0.22,-0.0,1.0
83,10.06,0.06,2.56,-0.63,0.23,-0.04,1.0
84,9.63,0.11,4.23,-0.62,0.33,-0.04,1.0
85,9.48,0.1,4.4,-0.62,0.24,-0.03,1.0
86,9.25,0.14,5.51,-0.63,-0.28,-0.02,1.0
87,9.75,0.31,3.9,-0.6,-0.01,0.0,1.0
88,9.7,0.22,3.62,-0.56,-0.23,0.0,1.0
89,9.72,0.03,2.49,-0.6,-0.24,-0.08,1.0
90,9.95,-0.06,3.41,-0.64,0.17,-0.01,1.0
91,9.34,0.12,3.62,-0.5,0.13,0.04,1.0
92,9.31,0.42,3.84,-0.62,-0.02,-0.01,1.0
93,8.84,0.9,3.74,-0.55,0.2,-0.07,1.0
94,9.1,0.36,4.93,-0.68,-0.09,-0.05,1.0
95,9.21,0.08,4.08,-0.59,-0.07,0.07,1.0
96,9.17,0.66,4.19,-0.67,-0.21,-0.04,1.0
97,9.7,-0.11,4.0,-0.77,-0.02,-0.16,1.0
98,10.19,0.42,3.5,-0.48,0.1,-0.03,1.0
99,8.92,-0.79,-4.15,-0.78,0.55,-0.08,1.0
100,10.29,-0.37,1.36,-0.5,0.21,-0.23,1.0
101,9.73,0.17,2.71,-0.57,0.27,-0.05,1.0
102,10.01,-0.86,1.2,-0.71,-0.16,0.12,1.0
103,9.96,-0.37,1.9,-0.63,-0.15,0.19,1.0
104,10.42,-0.3,1.56,-0.53,-0.06,0.02,1.0
105,9.96,-0.57,1.34,-0.79,-0.26,0.03,1.0
106,10.59,-0.27,1.04,-0.86,-0.12,-0.1,1.0
107,9.87,-0.47,0.92,-0.54,-0.06,-0.09,1.0
108,9.82,-0.11,1.26,-0.6,0.02,-0.06,1.0
109,9.73,-0.06,3.07,-0.63,0.76,-0.13,1.0
110,10.15,0.01,2.08,-0.56,-0.2,0.02,1.0
111,10.11,0.2,2.1,-0.55,-0.16,-0.02,1.0
112,10.1,0.14,2.0,-0.56,-0.14,-0.04,1.0
113,10.26,0.04,1.53,-0.57,-0.07,-0.06,1.0
114,10.21,0.2,1.58,-0.56,-0.07,-0.02,1.0
115,10.29,0.23,1.66,-0.62,0.01,-0.01,1.0
116,10.38,-0.41,1.84,-0.6,0.25,-0.06,1.0
117,10.38,-0.33,1.76,-0.58,0.31,-0.1,1.0
118,9.98,0.06,2.28,-0.62,0.09,-0.03,1.0
119,10.07,-0.35,2.16,-0.69,1.11,-0.26,1.0
120,9.52,0.09,3.54,-0.73,1.45,-0.41,1.0
121,9.86,-0.42,2.71,-0.6,-0.44,0.14,1.0
122,9.79,-0.11,3.12,-0.65,-0.04,-0.03,1.0
123,9.93,-0.15,2.91,-0.65,-0.02,-0.03,1.0
124,9.95,-0.02,2.89,-0.62,0.01,-0.04,1.0
125,9.84,-0.14,2.63,-0.66,0.46,-0.11,1.0
126,9.48,0.02,3.95,-0.68,0.36,-0.05,1.0
127,9.87,-0.1,3.18,-0.62,-0.12,0.03,1.0
128,10.07,-0.13,2.87,-0.58,-0.18,-0.05,1.0
129,9.96,-0.35,2.55,-0.65,0.3,-0.12,1.0
130,9.58,0.28,4.36,-0.76,0.85,-0.19,1.0
131,9.82,0.19,3.57,-0.65,0.37,-0.3,1.0
132,9.3,0.39,5.15,-0.62,0.39,-0.05,1.0
133,8.69,0.35,5.9,-0.66,0.53,-0.09,1.0
134,8.77,0.23,5.6,-0.62,-0.01,-0.02,1.0
135,8.71,0.27,5.57,-0.65,0.08,-0.02,1.0
136,9.07,0.36,5.41,-0.64,-0.01,-0.02,1.0
137,8.58,0.53,5.88,-0.64,0.1,-0.03,1.0
138,8.63,0.54,5.75,-0.62,0.4,-0.08,1.0
139,8.27,0.58,6.11,-0.61,-0.03,-0.05,1.0
140,8.43,0.59,6.32,-0.62,-0.05,-0.02,1.0
141,8.18,0.75,7.04,-0.6,0.12,-0.02,1.0
142,8.13,0.74,6.35,-0.62,-0.08,-0.0,1.0
143,8.37,0.8,6.15,-0.59,-0.01,-0.25,1.0
144,8.8,1.13,6.17,-0.63,-1.0,0.05,1.0
145,8.92,0.71,5.57,-0.62,-0.95,-0.05,1.0
146,9.75,1.24,2.53,-0.41,-0.9,0.02,1.0
147,9.86,1.09,2.07,-0.39,-0.36,0.14,1.0
148,10.33,0.99,2.01,-0.39,0.08,0.09,1.0
149,9.95,0.67,1.73,-0.72,-0.04,0.02,1.0
150,10.37,0.56,1.79,-0.71,-0.01,-0.04,1.0
151,9.98,1.0,1.52,-0.59,-0.16,0.1,1.0
152,10.14,0.45,1.52,-0.57,-0.27,0.18,1.0
153,10.45,0.38,1.12,-0.58,-0.28,0.27,1.0
154,10.09,0.67,1.0,-0.59,-0.03,0.02,1.0
155,9.55,0.55,2.85,-0.62,0.25,-0.15,1.0
156,9.55,0.91,3.68,-0.69,0.16,-0.11,1.0
157,9.59,0.97,2.95,-0.66,-0.17,-0.06,1.0
158,10.21,0.46,2.44,-0.62,0.15,0.01,1.0
159,10.3,0.52,2.47,-0.86,0.28,-0.04,1.0
160,10.04,0.61,2.73,-0.75,-0.13,-0.05,1.0
161,10.01,0.66,2.83,-0.53,0.05,-0.16,1.0
162,10.0,0.5,2.36,-0.76,-0.04,-0.04,1.0
163,9.5,1.1,3.75,-0.6,-0.03,0.01,1.0
164,9.94,0.71,2.68,-0.65,-0.13,0.02,1.0
165,10.05,0.62,2.37,-0.6,-0.16,-0.0,1.0
166,10.08,0.7,1.97,-0.7,-0.36,0.04,1.0
167,10.11,0.64,2.12,-0.64,0.01,0.02,1.0
168,10.19,-0.23,1.81,-0.62,-0.03,0.1,1.0
169,10.24,-0.04,1.4,-0.6,-0.04,-0.19,1.0
170,10.18,0.09,1.35,-0.65,0.01,-0.19,1.0
171,10.32,0.63,1.21,-0.94,-0.31,0.11,1.0
172,10.0,0.11,0.63,-0.61,0.18,0.04,1.0
173,10.07,0.17,1.62,-0.69,-0.18,-0.03,1.0
174,10.18,0.14,0.9,-0.57,0.03,-0.02,1.0
175,10.3,0.02,0.55,-0.59,-0.09,-0.08,1.0
176,10.02,-0.29,2.63,-0.55,0.09,-0.03,1.0
177,9.7,-0.0,1.23,-0.67,-0.18,-0.0,1.0
178,9.99,-0.95,1.0,-0.57,-0.63,0.24,1.0
179,10.21,0.09,3.33,-0.73,0.2,-0.19,1.0
180,9.49,0.43,3.12,-0.61,0.17,-0.19,1.0
181,9.44,0.06,3.36,-0.5,-0.01,-0.18,1.0
182,10.15,-0.4,2.52,-0.55,0.0,-0.02,1.0
183,9.88,-0.27,2.37,-0.56,-0.37,0.07,1.0
184,10.11,-0.12,2.1,-0.6,-0.01,-0.03,1.0
185,10.04,-0.18,2.03,-0.61,0.04,-0.03,1.0
186,9.67,-0.14,3.69,-0.67,0.54,-0.1,1.0
187,9.9,-0.09,2.33,-0.62,-0.06,0.03,1.0
188,10.12,-0.34,2.54,-0.69,0.01,-0.02,1.0
189,10.15,-0.17,1.9,-0.63,-0.02,-0.04,1.0
190,10.32,-0.55,1.55,-0.51,-0.06,-0.01,1.0
191,10.11,-0.53,1.63,-0.52,-0.02,-0.09,1.0
192,10.26,0.03,1.62,-0.56,-0.2,0.03,1.0
193,10.19,0.12,1.36,-0.61,-0.31,0.0,1.0
194,9.88,-0.06,1.02,-0.84,-0.29,-0.05,1.0
195,9.93,-0.26,1.67,-0.49,-0.72,-0.08,1.0
196,10.13,0.92,0.09,-0.39,-0.43,-0.15,1.0
197,10.04,0.18,-0.09,-0.5,-0.07,-0.05,1.0
198,10.39,0.25,-0.09,-0.6,-0.05,0.01,1.0
199,10.3,0.22,-0.25,-0.61,-0.01,0.02,1.0
200,10.1,0.11,-0.42,-0.6,0.0,0.0,1.0
201,10.01,1.04,0.43,-0.56,0.18,-0.15,1.0
202,10.2,0.1,1.54,-0.6,0.08,0.05,1.0
203,9.79,-0.03,1.85,-0.68,-0.09,0.18,1.0
204,10.44,-0.3,1.55,-0.81,-0.32,0.14,1.0
205,10.29,-0.24,1.37,-0.81,-0.16,0.11,1.0
206,10.13,-0.59,1.12,-0.64,-0.15,-0.0,1.0
207,10.35,-0.26,0.71,-0.65,-0.19,0.01,1.0
208,10.15,-0.15,2.25,-0.5,0.07,-0.0,1.0
209,10.5,-0.66,1.8,-0.47,0.92,0.21,1.0
210,9.98,-0.59,2.76,-0.84,0.36,0.22,1.0
211,9.12,0.15,3.68,-0.64,0.08,-0.33,1.0
212,11.13,0.51,2.06,-0.64,-0.24,-0.11,1.0
213,10.16,-0.14,2.36,-0.56,-0.07,0.07,1.0
214,9.86,-0.75,2.85,-0.5,0.04,0.09,1.0
215,9.92,0.16,2.44,-0.61,-0.09,-0.02,1.0
216,9.62,0.04,2.1,-0.61,-0.07,-0.02,1.0
217,9.36,0.48,0.82,-0.74,-0.46,-0.07,1.0
218,9.94,-0.17,0.68,-0.38,-1.32,0.16,1.0
219,10.11,0.08,-0.1,-0.58,-0.01,-0.08,1.0
220,10.05,0.12,2.07,-0.62,0.34,0.01,1.0
221,9.74,0.03,2.27,-0.62,0.08,0.04,1.0
222,10.02,-0.13,1.94,-0.65,-0.11,-0.03,1.0
223,10.13,-0.18,1.86,-0.65,-0.13,-0.01,1.0
224,10.09,-0.04,1.44,-0.61,0.15,-0.07,1.0
225,10.08,-0.05,1.47,-0.66,0.05,-0.06,1.0
226,10.21,0.24,1.36,-0.65,-0.1,-0.09,1.0
227,10.25,-0.08,1.15,-0.81,0.07,-0.09,1.0
228,10.17,-0.07,1.62,-0.62,-0.18,-0.06,1.0
229,10.06,-0.18,2.03,-0.55,-0.18,-0.03,1.0
230,10.18,-0.06,1.94,-0.57,-0.17,-0.03,1.0
231,9.93,-0.11,1.87,-0.62,-0.11,-0.01,1.0
232,10.07,-0.03,1.75,-0.64,-0.08,-0.03,1.0
233,10.2,-0.05,1.65,-0.61,-0.13,-0.05,1.0
234,10.06,0.04,0.99,-0.63,-0.21,-0.06,1.0
235,9.25,0.34,3.38,-0.07,0.11,-0.25,1.0
236,10.19,0.14,1.96,-0.69,0.15,-0.0,1.0
237,10.17,-0.01,2.17,-0.63,-0.0,0.01,1.0
238,10.2,-0.06,1.94,-0.58,0.08,-0.04,1.0
239,10.04,0.04,2.06,-0.6,0.13,0.01,1.0
240,9.91,0.01,3.48,-0.54,0.44,0.01,1.0
241,9.66,0.03,3.92,-0.52,0.37,-0.05,1.0
242,9.72,0.06,4.13,-0.62,0.17,0.01,1.0
243,9.44,0.09,4.38,-0.62,0.12,-0.0,1.0
244,9.27,0.07,4.98,-0.57,0.11,-0.0,1.0
245,8.93,-0.07,5.71,-0.83,0.13,-0.16,1.0
246,8.88,0.17,4.92,-0.57,0.07,0.01,1.0
247,8.44,0.6,5.78,-0.69,0.21,0.01,1.0
248,8.92,0.19,5.42,-0.62,-0.03,-0.02,1.0
249,8.74,0.34,5.92,-0.61,-0.07,-0.02,1.0
250,9.03,0.49,5.15,-0.62,-0.16,-0.01,1.0
251,8.34,0.65,6.37,-0.56,-0.06,-0.04,1.0
252,8.77,0.7,6.17,-0.47,0.1,-0.03,1.0
253,8.55,0.3,5.97,-0.47,-0.19,-0.08,1.0
254,8.5,0.45,5.65,-0.39,-0.72,0.16,1.0
255,8.94,0.35,5.02,-0.42,-0.72,0.18,1.0
256,9.77,0.2,4.51,-0.43,-0.39,0.09,1.0
257,9.56,0.33,4.67,-0.44,-0.34,0.04,1.0
258,9.84,0.34,3.12,-0.34,-0.57,-0.04,1.0
259,10.14,0.55,2.91,-0.44,-0.51,-0.03,1.0
260,9.8,0.24,2.95,-0.58,-0.22,-0.07,1.0
261,10.32,-0.09,2.78,-0.67,-0.09,-0.02,1.0
262,10.33,0.28,2.09,-0.4,-0.43,0.08,1.0
263,9.83,-0.05,2.26,-0.42,-0.64,0.06,1.0
264,10.25,0.35,1.57,-0.56,-0.06,-0.01,1.0
265,9.9,-0.24,1.77,-0.58,-0.04,0.05,1.0
266,10.19,-0.45,1.51,-0.64,-0.05,-0.0,1.0
267,10.22,-0.03,1.57,-0.74,-0.03,0.01,1.0
268,10.58,-0.86,2.09,-0.66,1.13,-0.44,1.0
269,9.06,0.03,2.98,-0.6,-0.12,-0.09,1.0
270,10.11,0.34,0.78,-0.63,-0.68,-0.01,1.0
271,10.04,0.22,1.0,-0.64,0.02,-0.02,1.0
272,8.8,0.08,2.49,-0.92,-0.16,0.2,1.0
273,10.32,-0.48,0.63,-0.71,0.39,0.06,1.0
274,10.17,-0.25,1.36,-0.72,0.38,-0.14,1.0
275,10.33,-0.43,1.31,-0.7,0.22,-0.14,1.0
276,10.18,0.06,0.8,-0.61,-0.03,-0.02,1.0
277,9.66,0.02,1.57,-0.6,0.1,0.0,1.0
278,9.72,0.39,2.24,-0.55,0.12,-0.07,1.0
279,9.72,0.79,2.78,-0.81,-0.0,0.01,1.0
280,9.69,0.69,2.78,-0.63,0.05,-0.04,1.0
281,10.11,0.54,2.38,-0.59,-0.03,-0.02,1.0
282,10.09,1.1,2.54,-0.67,-0.01,-0.11,1.0
283,10.12,1.09,2.51,-0.62,-0.04,0.03,1.0
284,10.03,0.87,2.14,-0.51,-0.12,0.11,1.0
285,10.18,0.88,1.97,-0.56,-0.06,-0.07,1.0
286,10.11,0.7,2.07,-0.64,0.01,-0.05,1.0
287,10.15,0.84,1.46,-0.52,-0.15,-0.06,1.0
288,10.09,0.71,1.41,-0.5,-0.18,-0.04,1.0
289,10.09,0.59,1.05,-0.37,-0.12,-0.03,1.0
290,10.5,1.81,0.59,-0.33,-0.11,-0.05,1.0
291,10.4,1.11,0.85,-0.36,-0.12,-0.06,1.0
292,10.2,0.63,1.12,-0.78,0.37,0.06,1.0
293,10.0,0.69,1.21,-0.74,0.32,0.07,1.0
294,9.87,0.54,1.48,-0.71,0.26,0.14,1.0
295,10.18,0.6,1.42,-0.68,0.26,0.15,1.0
296,9.98,0.43,1.52,-0.69,0.36,0.07,1.0
297,10.13,0.34,1.82,-0.65,0.3,0.02,1.0
298,9.95,0.49,2.3,-0.66,0.25,0.0,1.0
299,9.81,0.42,2.23,-0.63,0.21,0.03,1.0
300,9.74,0.35,2.49,-0.64,0.14,-0.0,1.0
301,9.83,0.16,1.55,-0.65,-0.36,0.06,1.0
302,10.29,0.23,1.18,-0.59,-0.29,0.01,1.0
303,10.13,0.24,0.79,-0.61,-0.32,0.06,1.0
304,10.22,-0.01,0.49,-0.59,0.01,-0.03,1.0
305,10.14,0.12,0.57,-0.63,-0.16,0.03,1.0
306,10.07,-0.11,0.44,-0.7,0.02,-0.05,1.0
307,10.3,0.14,0.99,-0.41,0.21,-0.12,1.0
308,10.18,-0.24,0.42,-0.66,-0.16,-0.02,1.0
309,10.33,-0.54,0.3,-0.61,-0.2,-0.03,1.0
310,10.19,-0.36,0.09,-0.69,-0.13,-0.03,1.0
311,10.08,-0.23,-0.04,-0.67,-0.12,-0.04,1.0
312,10.05,-0.17,-0.17,-0.62,-0.07,-0.05,1.0
313,10.36,-0.19,-0.62,-0.64,-0.14,-0.03,1.0
314,10.16,-0.31,-0.88,-0.67,-0.18,0.06,1.0
315,9.97,-0.3,-1.05,-0.65,-0.06,0.04,1.0
316,10.03,-0.44,-1.16,-0.63,-0.05,0.02,1.0
317,10.3,0.23,0.02,-0.58,-0.07,0.03,1.0
318,10.02,0.01,-0.3,-0.56,0.03,-0.01,1.0
319,10.04,0.33,1.32,-0.64,0.46,-0.16,1.0
320,10.02,0.39,1.7,-0.67,0.35,-0.17,1.0
321,9.86,0.63,1.9,-0.71,0.05,-0.11,1.0
322,10.09,0.48,2.13,-0.74,0.08,-0.07,1.0
323,10.06,0.87,3.01,-0.6,0.28,-0.09,1.0
324,9.59,0.88,2.92,-0.66,0.2,-0.12,1.0
325,10.01,1.06,3.12,-0.64,0.28,-0.09,1.0
326,9.94,0.91,3.24,-0.63,0.09,0.01,1.0
327,8.99,0.75,2.53,-0.62,0.05,0.08,1.0
328,12.17,-0.02,2.77,-0.92,0.17,0.06,1.0
329,9.72,0.58,2.94,-0.68,-0.12,0.03,1.0
330,9.01,0.67,3.01,-0.73,-0.14,0.04,1.0
331,10.33,0.68,2.28,-0.52,-0.05,-0.12,1.0
332,11.02,0.02,2.22,-0.57,-0.25,0.01,1.0
333,9.77,0.45,2.02,-0.63,-0.02,-0.08,1.0
334,10.11,0.38,2.15,-0.66,-0.04,-0.07,1.0
335,9.89,-0.04,2.11,-0.6,-0.13,0.1,1.0
336,9.8,0.4,1.75,-0.57,-0.21,0.02,1.0
337,10.06,0.27,1.81,-0.62,-0.57,0.04,1.0
338,10.21,0.24,1.47,-0.62,-0.42,0.04,1.0
339,9.77,0.61,1.5,-0.63,-0.33,-0.0,1.0
340,10.46,0.14,0.64,-0.71,-0.58,0.05,1.0
341,9.84,-0.33,-4.14,-0.65,0.61,-0.08,1.0
342,9.04,-0.12,-3.41,-0.69,0.43,-0.14,1.0
343,8.84,-0.25,-2.73,-0.64,0.43,0.08,1.0
344,8.96,-0.05,-2.71,-0.65,0.51,-0.06,1.0
345,10.23,-0.25,-2.5,-0.62,0.35,-0.05,1.0
346,9.66,0.72,0.96,-0.58,0.27,-0.09,1.0
347,10.12,0.47,1.3,-0.63,0.25,-0.11,1.0
348,10.02,0.69,1.78,-0.61,0.3,-0.13,1.0
349,10.29,0.81,1.81,-0.61,0.13,-0.07,1.0
350,10.24,0.63,2.14,-0.65,0.26,0.01,1.0
351,10.2,0.69,2.19,-0.66,0.21,0.01,1.0
352,9.66,0.65,2.36,-0.59,-0.09,0.0,1.0
353,9.69,0.7,2.49,-0.6,0.01,-0.04,1.0
354,10.1,0.68,2.11,-0.48,0.06,-0.01,1.0
355,9.99,0.81,2.25,-0.57,0.02,0.04,1.0
356,9.83,0.6,1.47,-0.58,-0.25,-0.09,1.0
357,10.09,0.46,1.89,-0.66,0.31,-0.05,1.0
358,9.36,0.41,1.98,-0.64,-0.31,-0.05,1.0
359,10.55,1.18,1.83,-0.52,-0.18,-0.01,1.0
360,9.67,0.36,1.95,-0.48,0.05,-0.04,1.0
361,10.25,0.57,1.45,-0.61,-0.21,-0.01,1.0
362,10.19,0.75,1.21,-0.6,0.09,-0.03,1.0
363,9.81,0.91,1.44,-0.6,0.03,-0.11,1.0
364,10.27,0.65,1.11,-0.58,-0.04,0.12,1.0
365,10.22,0.28,1.22,-0.52,-0.08,0.08,1.0
366,10.17,0.08,0.9,-0.56,-0.08,0.04,1.0
367,10.28,0.34,0.51,-0.58,-0.02,0.01,1.0
368,9.96,-0.33,1.87,-0.56,0.01,0.02,1.0
369,10.1,-0.42,1.84,-0.52,0.1,0.07,1.0
370,10.16,-0.51,0.09,-0.65,-0.02,-0.04,1.0
371,10.2,0.39,1.0,-0.59,-0.3,-0.04,1.0
372,10.23,0.54,1.2,-0.6,0.24,-0.06,1.0
373,10.41,-0.02,1.31,-0.73,0.03,0.02,1.0
374,10.27,-0.17,1.87,-0.54,0.18,0.24,1.0
375,9.74,-0.03,1.77,-0.61,0.13,0.15,1.0
376,9.7,-0.13,1.89,-0.58,0.07,0.18,1.0
377,10.21,-0.13,1.49,-0.6,-0.25,-0.04,1.0
378,10.01,-0.18,2.43,-0.61,-0.38,0.03,1.0
379,10.16,-0.15,2.45,-0.63,-0.29,0.0,1.0
380,10.08,-0.14,1.18,-0.57,-0.66,-0.02,1.0
381,10.37,-0.17,0.08,-0.53,-0.51,-0.1,1.0
382,9.85,-0.02,0.5,-0.61,-0.14,-0.12,1.0
383,10.09,0.15,0.86,-0.59,-0.12,-0.07,1.0
384,10.24,0.02,1.32,-0.6,0.04,0.03,1.0
385,9.97,0.11,0.42,-0.6,-0.01,-0.06,1.0
386,9.94,0.17,0.57,-0.6,-0.04,-0.04,1.0
387,9.95,-0.05,1.09,-0.62,-0.02,-0.02,1.0
388,10.51,-0.53,2.18,-0.69,-0.13,0.12,1.0
389,10.07,-0.33,2.01,-0.63,0.09,0.1,1.0
390,9.79,-0.42,2.12,-0.62,0.08,0.06,1.0
391,10.23,-1.0,2.42,-0.65,0.17,-0.03,1.0
392,9.85,-0.5,3.1,-0.63,0.16,-0.09,1.0
393,10.08,-0.07,2.32,-0.62,-0.08,-0.11,1.0
394,9.5,-0.11,2.04,-0.61,-0.0,-0.1,1.0
395,9.95,0.24,2.0,-0.6,0.06,-0.02,1.0
396,10.03,0.2,1.53,-0.61,-0.02,-0.03,1.0
397,10.18,0.08,1.21,-0.64,-0.17,0.04,1.0
398,10.31,0.39,0.67,-0.61,-0.05,0.05,1.0
399,10.13,-0.26,1.77,-0.63,-0.08,-0.0,1.0
400,10.15,0.23,1.59,-0.69,-0.18,0.04,1.0
401,10.16,0.05,1.34,-0.63,-0.1,-0.01,1.0
402,10.27,-0.02,1.13,-0.59,-0.19,-0.05,1.0
403,10.27,-0.06,0.99,-0.58,-0.15,-0.03,1.0
404,10.14,0.13,0.82,-0.65,0.04,-0.02,1.0
405,10.19,-0.66,1.32,-0.62,0.09,0.1,1.0
406,10.01,-0.99,1.44,-0.73,0.08,0.07,1.0
407,9.73,0.93,1.65,-0.64,0.18,-0.08,1.0
408,9.65,1.33,2.41,-0.6,0.5,-0.16,1.0
409,10.04,1.26,3.1,-0.67,0.13,-0.02,1.0
410,9.9,0.7,2.35,-0.61,0.01,-0.02,1.0
411,10.14,0.31,1.89,-0.54,-0.19,-0.04,1.0
412,9.91,0.24,2.06,-0.58,-0.18,-0.09,1.0
413,10.18,0.23,1.77,-0.6,-0.12,-0.09,1.0
414,10.27,0.27,1.61,-0.64,0.01,-0.11,1.0
415,10.17,0.11,1.21,-0.65,-0.35,0.07,1.0
416,10.02,0.14,1.0,-0.59,-0.37,-0.1,1.0
417,10.14,0.11,0.6,-0.55,-0.25,-0.19,1.0
418,10.15,0.3,0.66,-0.58,-0.31,-0.04,1.0
419,9.96,0.32,0.1,-0.56,-0.06,-0.1,1.0
420,9.61,0.45,0.34,-0.55,-0.06,-0.05,1.0
421,10.82,0.34,0.14,-0.62,-0.19,0.07,1.0
422,10.44,0.31,-0.22,-0.57,-0.03,-0.1,1.0
423,10.24,0.67,-0.41,-0.58,-0.13,0.06,1.0
424,9.94,0.52,-0.53,-0.54,-0.09,-0.11,1.0
425,9.92,0.39,-0.46,-0.57,0.1,-0.15,1.0
426,10.29,0.31,-0.97,-0.57,-0.03,-0.0,1.0
427,10.07,0.32,-0.39,-0.77,-0.38,0.01,1.0
428,10.5,0.36,0.41,-0.45,-0.35,-0.57,1.0
429,10.86,0.84,-0.31,-0.46,-0.65,-0.77,1.0
430,10.15,0.97,-0.49,-0.66,0.08,0.12,1.0
431,10.29,0.98,-0.33,-0.66,0.06,-0.0,1.0
432,9.88,0.74,-0.89,-0.64,-0.16,-0.05,1.0
433,10.39,0.04,-0.49,-0.58,-0.21,-0.08,1.0
434,10.51,0.24,0.47,-0.66,-0.39,0.06,1.0
435,10.13,0.34,0.65,-0.6,0.01,-0.04,1.0
436,10.35,0.89,0.03,-0.6,-0.02,-0.1,1.0
437,9.91,-0.05,0.62,-0.48,-0.19,-0.1,1.0
438,10.24,0.06,0.71,-0.49,-0.18,-0.09,1.0
439,10.08,0.21,0.39,-0.59,-0.2,-0.02,1.0
440,9.9,0.05,1.68,-0.7,0.44,-0.02,1.0
441,10.0,-0.04,1.74,-0.65,0.13,-0.02,1.0
442,9.5,0.41,1.87,-0.72,0.05,-0.16,1.0
443,10.28,0.17,1.36,-0.78,0.08,-0.13,1.0
444,10.09,0.38,1.27,-0.46,-0.03,0.0,1.0
445,9.61,0.22,1.98,-0.76,0.04,0.1,1.0
446,10.32,0.47,1.19,-0.51,-0.39,-0.1,1.0
447,10.25,0.39,1.12,-0.66,-0.36,0.03,1.0
448,10.48,0.43,0.59,-0.58,-0.14,-0.01,1.0
449,10.15,0.48,0.46,-0.6,0.02,-0.04,1.0
450,10.06,0.29,0.26,-0.58,-0.01,-0.02,1.0
451,9.81,0.38,-0.06,-0.62,-0.18,-0.06,1.0
452,10.11,0.36,-0.07,-0.65,-0.02,-0.05,1.0
453,10.27,0.49,0.05,-0.62,-0.01,-0.04,1.0
454,9.86,0.38,1.83,-0.59,-0.17,-0.04,1.0
455,9.87,0.19,1.7,-0.6,-0.25,0.02,1.0
456,10.38,0.39,1.6,-0.63,-0.24,0.05,1.0
457,10.36,0.13,1.39,-0.57,-0.23,0.01,1.0
458,10.22,0.29,1.68,-0.52,-0.72,-0.02,1.0
459,10.34,0.36,1.54,-0.62,0.58,-0.05,1.0
460,10.18,0.3,1.79,-0.61,0.55,-0.06,1.0
461,9.92,0.35,2.37,-0.61,-0.05,-0.03,1.0
462,10.19,0.38,1.18,-0.63,-0.5,-0.02,1.0
463,10.09,0.41,1.86,-0.65,0.44,-0.06,1.0
464,9.92,0.48,2.34,-0.59,0.33,-0.07,1.0
465,10.42,0.52,1.24,-0.56,-0.52,-0.03,1.0
466,9.99,0.46,1.36,-0.61,-0.2,-0.02,1.0
467,10.18,0.47,1.3,-0.62,-0.2,-0.02,1.0
468,9.61,0.45,0.92,-0.6,-0.11,-0.07,1.0
469,9.49,0.54,0.73,-0.62,-0.03,-0.03,1.0
470,9.65,0.32,0.91,-0.69,-0.15,-0.04,1.0
471,9.84,0.51,0.57,-0.67,-0.09,0.0,1.0
472,10.06,0.43,2.11,-0.58,-0.08,-0.04,1.0
473,10.11,0.45,1.88,-0.64,-0.32,0.03,1.0
474,9.98,0.31,1.38,-0.61,-0.14,0.01,1.0
475,9.73,0.23,1.26,-0.64,0.3,0.01,1.0
476,10.43,0.22,0.93,-0.61,-0.07,-0.02,1.0
477,10.22,0.28,0.9,-0.59,0.02,-0.01,1.0
478,10.37,0.03,-0.45,-0.56,-0.11,0.02,1.0
479,10.3,0.29,-0.09,-0.62,-0.13,-0.0,1.0
480,10.11,0.15,-0.15,-0.62,-0.07,-0.02,1.0
481,10.17,0.1,-0.4,-0.59,-0.01,-0.01,1.0
482,10.33,0.16,0.05,-0.58,-0.44,0.0,1.0
483,10.3,0.09,-0.2,-0.62,-0.02,0.03,1.0
484,10.09,-0.34,1.3,-0.69,0.21,0.03,1.0
485,10.19,0.22,-0.68,-0.6,-0.07,-0.01,1.0
486,10.18,0.21,-0.79,-0.61,-0.04,-0.01,1.0
487,10.06,0.17,-0.93,-0.62,0.05,-0.03,1.0
488,9.97,0.53,-1.0,-0.72,-0.11,-0.0,1.0
489,10.33,0.4,-0.69,-0.63,-0.03,-0.02,1.0
490,10.2,0.19,-0.58,-0.55,-0.06,0.05,1.0
491,9.35,0.21,0.06,-0.64,-0.06,0.0,1.0
492,10.51,0.19,-0.59,-0.43,-0.02,-0.01,1.0
493,10.47,-0.08,-1.11,-0.58,-0.14,-0.06,1.0
494,10.16,-0.27,-1.13,-0.55,0.11,-0.03,1.0
495,10.13,-0.1,-0.04,-0.56,0.04,-0.07,1.0
496,10.2,-0.1,-0.21,-0.57,0.14,-0.01,1.0
497,9.75,-0.22,-0.18,-0.57,0.1,0.03,1.0
498,9.97,-0.0,1.26,-0.6,0.09,-0.02,1.0
499,10.24,-0.17,0.67,-0.62,-0.07,-0.03,1.0
500,9.97,0.19,0.21,-0.48,-0.14,-0.15,1.0
501,10.2,0.34,0.15,-0.59,0.04,-0.03,1.0
502,10.12,0.45,0.08,-0.62,0.04,-0.01,1.0
503,9.85,0.12,1.07,-0.56,0.21,-0.04,1.0
504,9.64,0.51,1.13,-0.57,0.07,-0.05,1.0
505,9.77,0.59,1.05,-0.66,-0.06,-0.05,1.0
506,10.35,0.58,0.25,-0.58,-0.06,-0.03,1.0
507,9.91,0.74,0.28,-0.64,0.09,0.01,1.0
508,10.12,0.44,-0.73,-0.57,0.02,-0.06,1.0
509,10.21,0.37,-0.85,-0.63,-0.07,-0.01,1.0
510,10.25,0.35,0.31,-0.59,0.22,0.02,1.0
511,9.88,0.39,-0.08,-0.59,-0.37,-0.03,1.0
512,9.78,0.39,-1.08,-0.6,-0.13,0.01,1.0
513,9.81,0.47,-1.14,-0.57,-0.08,-0.02,1.0
514,9.88,0.27,-1.65,-0.45,-0.05,-0.1,1.0
515,9.96,0.66,-1.82,-0.42,0.05,-0.03,1.0
516,10.17,0.29,-0.87,-0.6,-0.01,-0.03,1.0
517,10.31,0.51,-0.64,-0.62,0.03,0.01,1.0
518,10.38,0.57,-0.74,-0.59,-0.04,-0.03,1.0
519,10.17,0.24,-0.81,-0.51,-0.06,-0.02,1.0
520,10.2,0.34,-0.88,-0.55,-0.12,-0.01,1.0
521,10.2,0.16,-1.33,-0.52,-0.12,0.02,1.0
522,10.01,0.29,-1.53,-0.53,-0.11,-0.02,1.0
523,10.27,0.09,-1.65,-0.61,0.0,-0.04,1.0
524,9.93,0.09,-1.75,-0.62,-0.08,-0.04,1.0
525,9.79,0.45,-1.82,-0.61,-0.08,-0.12,1.0
526,9.85,0.38,-2.35,-0.61,-0.11,-0.1,1.0
527,9.48,0.49,-2.01,-0.63,0.06,-0.04,1.0
528,9.53,0.57,-1.15,-0.6,0.21,-0.01,1.0
529,9.74,0.96,0.91,-0.61,0.56,0.05,1.0
530,10.95,0.54,1.38,-0.66,0.03,0.03,1.0
531,10.19,0.5,0.28,-0.59,-0.09,-0.02,1.0
532,10.22,0.54,-0.03,-0.59,-0.27,-0.02,1.0
533,10.0,0.62,-0.18,-0.57,0.05,-0.06,1.0
534,10.26,0.37,-0.1,-0.56,-0.21,-0.01,1.0
535,10.14,0.49,0.02,-0.61,0.12,-0.04,1.0
536,10.48,0.39,-0.31,-0.57,0.02,-0.04,1.0
537,10.27,0.37,-0.57,-0.54,-0.29,-0.01,1.0
538,10.34,0.4,0.34,-0.61,0.04,-0.07,1.0
539,10.64,-0.04,1.29,-0.74,0.08,-0.05,1.0
540,9.57,0.68,0.93,-0.67,-0.1,-0.03,1.0
541,10.16,0.28,0.45,-0.59,-0.02,-0.06,1.0
542,10.24,0.38,0.29,-0.76,-0.08,0.02,1.0
543,10.15,0.17,0.6,-0.54,-0.25,-0.03,1.0
544,10.24,0.29,0.62,-0.6,-0.11,-0.03,1.0
545,10.1,0.44,0.19,-0.6,-0.16,-0.03,1.0
546,10.25,0.32,0.35,-0.6,-0.15,0.01,1.0
547,10.17,0.37,-0.04,-0.59,-0.05,-0.01,1.0
548,9.85,0.34,0.19,-0.62,-0.27,-0.11,1.0
549,10.14,0.4,0.04,-0.63,-0.06,-0.02,1.0
550,10.07,0.34,1.08,-0.68,-0.14,0.01,1.0
551,10.32,0.37,0.72,-0.65,0.03,-0.0,1.0
552,10.08,0.35,1.44,-0.53,-0.3,-0.01,1.0
553,10.18,0.4,1.34,-0.62,-0.05,-0.04,1.0
554,10.18,0.51,1.13,-0.59,-0.08,-0.03,1.0
555,10.13,0.4,1.62,-0.6,-0.2,-0.03,1.0
556,10.02,0.31,2.22,-0.67,0.22,-0.0,1.0
557,9.9,0.18,2.37,-0.65,0.2,-0.01,1.0
558,10.19,0.24,1.71,-0.56,-0.21,-0.03,1.0
559,10.38,0.42,1.49,-0.38,-0.46,-0.11,1.0
560,9.71,0.48,0.28,-0.48,-0.11,-0.12,1.0
561,10.11,0.62,1.51,-0.51,0.05,-0.01,1.0
562,9.54,0.71,0.66,-0.56,-0.11,-0.02,1.0
563,10.43,0.4,0.85,-0.75,-0.19,-0.05,1.0
564,10.17,0.4,1.06,-0.71,-0.27,-0.05,1.0
565,10.26,0.3,0.83,-0.67,-0.25,-0.06,1.0
566,10.26,0.35,0.78,-0.64,-0.36,-0.06,1.0
567,10.27,0.34,0.49,-0.58,0.04,-0.02,1.0
568,10.23,0.35,0.42,-0.51,-0.03,-0.03,1.0
569,10.1,0.45,0.22,-0.42,-0.04,-0.02,1.0
570,10.17,0.63,-1.07,-0.66,-0.11,0.0,1.0
571,10.13,0.58,-1.16,-0.59,0.13,-0.03,1.0
572,10.25,0.75,-0.53,-0.59,-0.05,-0.04,1.0
573,10.41,0.37,-1.11,-0.73,0.16,-0.05,1.0
574,10.23,0.47,-1.07,-0.67,-0.25,-0.09,1.0
575,10.1,0.74,-1.45,-0.75,-0.17,-0.13,1.0
576,10.07,0.28,0.91,-0.58,0.21,0.01,1.0
577,10.32,0.09,1.14,-0.56,0.17,-0.06,1.0
578,9.93,0.31,0.13,-0.52,-0.31,-0.14,1.0
579,10.37,0.38,0.01,-0.59,-0.17,-0.0,1.0
580,10.29,0.29,0.01,-0.64,-0.19,-0.09,1.0
581,9.85,0.62,-0.36,-0.59,-0.07,-0.08,1.0
582,11.53,0.66,-1.03,-0.64,-0.23,-0.07,1.0
583,10.2,0.77,-0.37,-0.59,-0.44,0.01,1.0
584,9.7,0.48,-1.84,-0.71,0.55,0.04,1.0
585,10.2,0.61,1.08,-0.52,0.47,-0.02,1.0
586,10.19,0.79,1.27,-0.92,-0.23,-0.02,1.0
587,9.93,0.51,1.47,-0.62,-0.11,-0.11,1.0
588,10.32,0.93,0.24,-0.6,-0.01,-0.02,1.0
589,10.19,0.5,0.82,-0.61,-0.16,-0.03,1.0
590,10.21,0.42,0.64,-0.6,-0.05,-0.05,1.0
591,10.34,0.37,0.42,-0.58,-0.34,-0.07,1.0
592,10.33,0.65,0.25,-0.64,0.03,-0.02,1.0
593,10.12,0.48,-0.13,-0.65,0.07,0.0,1.0
594,10.2,0.59,-0.34,-0.6,0.06,-0.05,1.0
595,10.19,0.95,0.12,-0.58,0.02,-0.07,1.0
596,10.23,0.86,-0.2,-0.63,-0.09,0.12,1.0
597,9.9,0.66,0.34,-0.5,-0.14,-0.02,1.0
598,9.43,0.8,0.07,-0.85,0.23,-0.17,1.0
599,11.01,0.5,-0.07,-0.67,0.31,-0.09,1.0
600,9.78,1.0,0.46,-0.63,0.04,-0.09,1.0
601,10.12,1.05,0.06,-0.43,-0.25,-0.06,1.0
602,9.98,0.64,0.01,-0.42,-0.14,0.04,1.0
603,10.21,0.62,-0.39,-0.48,-0.24,0.12,1.0
604,9.9,0.11,-0.6,-0.44,-0.06,0.07,1.0
605,10.14,0.12,-0.61,-0.44,-0.06,0.11,1.0
606,10.09,0.16,-0.74,-0.46,-0.05,0.08,1.0
607,10.03,0.27,-0.8,-0.49,-0.05,0.08,1.0
608,10.31,0.21,1.01,-0.57,-0.09,0.05,1.0
609,10.25,0.22,0.92,-0.6,-0.07,-0.0,1.0
610,10.28,-0.03,0.01,-0.59,0.02,-0.07,1.0
611,10.36,-0.09,0.42,-0.63,-0.03,-0.01,1.0
612,10.32,-0.25,0.58,-0.59,-0.03,-0.03,1.0
613,9.74,0.03,0.62,-0.58,-0.19,-0.04,1.0
614,10.07,0.01,0.2,-0.55,-0.12,-0.04,1.0
615,9.88,-0.04,0.04,-0.55,0.05,-0.0,1.0
616,10.4,0.59,-0.51,-0.56,-0.03,0.01,1.0
617,10.19,0.51,-1.06,-0.59,-0.0,-0.02,1.0
618,10.17,0.54,-0.75,-0.59,0.16,0.0,1.0
619,10.08,0.33,0.65,-0.59,0.39,-0.04,1.0
620,9.64,0.37,-0.78,-0.57,0.0,-0.09,1.0
621,9.63,0.66,-0.65,-0.63,-0.07,-0.05,1.0
622,9.54,0.85,-1.03,-0.7,-0.27,-0.11,1.0
623,10.12,0.7,-0.86,-0.6,0.09,-0.03,1.0
624,10.46,0.31,-0.75,-0.61,0.08,0.01,1.0
625,10.2,0.25,-0.3,-0.61,-0.14,-0.05,1.0
626,10.04,0.36,-0.39,-0.59,0.2,-0.08,1.0
627,10.18,0.34,-0.49,-0.51,-0.11,-0.15,1.0
628,10.18,0.78,-0.78,-0.57,0.06,-0.1,1.0
629,10.13,0.71,-0.63,-0.59,0.07,-0.11,1.0
630,10.1,0.17,-0.68,-0.53,0.04,-0.04,1.0
631,10.36,0.26,-0.18,-0.59,-0.04,-0.09,1.0
632,10.29,0.68,-0.63,-0.6,-0.1,-0.03,1.0
633,10.01,0.74,-0.58,-0.62,0.01,-0.03,1.0
634,10.24,0.77,-0.67,-0.59,0.03,-0.03,1.0
635,9.86,0.65,0.22,-0.66,0.16,0.0,1.0
636,10.01,0.68,-1.1,-0.61,-0.15,-0.01,1.0
637,10.08,0.62,-1.45,-0.58,-0.19,-0.07,1.0
638,9.92,0.62,-1.46,-0.61,0.13,-0.03,1.0
639,10.1,0.66,-1.18,-0.61,0.14,-0.04,1.0
640,10.1,1.02,-1.5,-0.71,-0.21,-0.12,1.0
641,10.06,0.77,-1.04,-0.64,0.04,-0.05,1.0
642,10.3,0.65,-1.58,-0.58,0.05,-0.0,1.0
643,10.82,0.76,-0.63,-0.57,0.08,-0.02,1.0
644,10.54,0.77,-0.81,-0.56,0.19,-0.08,1.0
645,9.83,0.6,-0.14,-0.56,0.15,0.02,1.0
646,9.88,0.67,-0.54,-0.62,-0.03,-0.05,1.0
647,9.45,1.24,-0.44,-0.76,-0.13,-0.0,1.0
648,9.97,1.31,-1.18,-0.61,-0.07,-0.07,1.0
649,10.11,1.7,-1.25,-0.61,-0.08,-0.07,1.0
650,10.08,1.73,-1.1,-0.65,-0.1,-0.07,1.0
651,9.91,1.73,-1.4,-0.63,-0.02,-0.1,1.0
652,10.17,1.23,-0.28,-0.42,0.03,0.02,1.0
653,10.43,1.17,-0.34,-0.34,0.28,0.23,1.0
654,9.63,1.4,-0.16,-0.44,0.32,0.27,1.0
655,10.23,1.31,-0.95,-0.51,-0.31,0.04,1.0
656,10.54,0.71,-0.91,-0.51,-0.2,0.05,1.0
657,10.4,0.15,-0.84,-0.56,0.23,0.23,1.0
658,10.44,0.15,-0.66,-0.58,0.23,0.23,1.0
659,10.47,0.1,-0.42,-0.62,0.28,0.15,1.0
660,9.84,-0.32,-0.07,-0.63,0.26,-0.03,1.0
661,10.25,-0.31,0.46,-0.69,0.35,0.02,1.0
662,10.05,-0.04,1.39,-0.67,0.14,-0.07,1.0
663,10.24,0.33,0.53,-0.55,-0.14,-0.08,1.0
664,10.12,0.39,0.42,-0.58,-0.07,-0.09,1.0
665,10.15,0.35,0.24,-0.59,-0.05,-0.07,1.0
666,10.21,0.46,0.29,-0.55,-0.08,-0.05,1.0
667,10.38,0.46,0.02,-0.57,-0.03,-0.07,1.0
668,10.29,0.44,0.14,-0.62,0.08,-0.05,1.0
669,10.32,0.38,1.0,-0.56,-0.37,0.0,1.0
670,10.29,0.39,0.38,-0.64,-0.24,-0.04,1.0
671,10.48,0.18,0.08,-0.64,0.19,0.0,1.0
672,10.31,0.39,0.04,-0.67,0.12,-0.05,1.0
673,10.16,0.36,-0.2,-0.58,-0.1,-0.1,1.0
674,10.24,0.32,-0.13,-0.57,-0.06,-0.06,1.0
675,10.26,0.47,-0.43,-0.58,-0.06,-0.05,1.0
676,9.31,0.79,-0.62,-0.68,-0.19,-0.24,1.0
677,10.18,0.63,-0.82,-0.63,-0.13,-0.01,1.0
678,10.01,0.68,-1.29,-0.63,-0.05,-0.03,1.0
679,10.12,0.7,-1.09,-0.61,0.0,-0.04,1.0
680,10.17,0.45,-1.57,-0.59,-0.09,-0.04,1.0
681,9.99,0.63,-1.52,-0.61,0.17,-0.06,1.0
682,10.09,0.41,0.16,-0.62,0.27,0.02,1.0
683,10.05,0.51,0.87,-0.57,0.26,-0.03,1.0
684,10.17,0.43,0.02,-0.54,-0.01,-0.06,1.0
685,10.33,0.77,-0.89,-0.61,-0.02,-0.06,1.0
686,9.59,0.65,0.37,-0.62,0.13,-0.14,1.0
687,11.41,0.65,-0.39,-0.61,-0.12,0.13,1.0
688,9.73,0.98,0.17,-0.52,-0.2,-0.06,1.0
689,9.85,0.99,0.12,-0.56,0.05,0.08,1.0
690,10.93,0.66,0.41,-0.54,-0.13,-0.03,1.0
691,10.48,0.61,-0.12,-0.68,-0.12,0.07,1.0
692,10.55,0.19,0.24,-0.61,0.06,0.02,1.0
693,9.76,0.25,0.18,-0.61,0.08,-0.03,1.0
694,9.67,0.47,0.97,-0.62,0.03,-0.08,1.0
695,10.44,0.37,-0.08,-0.59,0.08,-0.07,1.0
696,10.24,0.93,-0.13,-0.58,-0.28,-0.11,1.0
697,9.82,0.88,-0.04,-0.56,-0.2,-0.07,1.0
698,10.76,-0.07,0.08,-0.6,0.04,-0.1,1.0
699,10.1,0.27,-0.58,-0.58,-0.09,-0.05,1.0
700,10.32,0.52,-0.44,-0.57,-0.02,-0.04,1.0
701,10.18,0.56,-0.81,-0.57,0.08,-0.03,1.0
702,9.91,0.46,-0.58,-0.6,0.06,-0.05,1.0
703,10.21,0.66,-0.57,-0.58,-0.04,-0.07,1.0
704,9.69,1.12,-0.36,-0.59,-0.03,-0.08,1.0
705,10.24,0.21,0.17,-0.64,0.15,0.06,1.0
706,10.14,0.87,-0.69,-0.57,0.09,-0.09,1.0
707,9.79,0.91,1.29,-0.66,-0.01,-0.03,1.0
708,10.28,0.78,-0.32,-0.58,0.16,0.04,1.0
709,10.12,0.77,-0.25,-0.62,0.11,-0.03,1.0
710,10.22,0.76,-0.38,-0.56,0.16,-0.1,1.0
711,10.57,0.9,-0.51,-0.6,0.09,-0.01,1.0
712,10.07,0.66,-0.09,-0.58,0.0,-0.03,1.0
713,10.07,0.76,-0.41,-0.6,0.06,-0.04,1.0
714,10.39,0.72,-1.01,-0.56,0.18,0.02,1.0
715,10.11,0.56,0.74,-0.63,0.31,-0.08,1.0
716,10.31,-0.06,-0.11,-0.53,-0.12,0.14,1.0
717,10.73,-0.2,-0.3,-0.59,-0.12,0.09,1.0
718,10.43,-0.56,-0.05,-0.6,0.02,0.09,1.0
719,10.18,-0.45,-0.07,-0.55,-0.09,0.01,1.0
720,10.03,0.08,-0.17,-0.8,0.27,-0.06,1.0
721,9.84,0.07,1.07,-0.61,0.24,-0.1,1.0
722,10.18,0.45,1.25,-0.58,-0.0,-0.12,1.0
723,9.76,0.29,0.99,-0.56,-0.04,-0.05,1.0
724,9.5,0.28,0.75,-0.63,0.16,-0.07,1.0
725,9.85,0.08,0.64,-0.64,0.08,0.01,1.0
726,10.23,0.29,0.15,-0.62,-0.09,-0.04,1.0
727,10.28,0.46,0.28,-0.61,-0.01,-0.02,1.0
728,10.09,0.37,1.18,-0.61,-0.02,-0.03,1.0
729,10.47,0.31,1.11,-0.36,0.04,-0.1,1.0
730,10.31,0.32,-0.24,-0.6,-0.01,-0.01,1.0
731,10.03,0.16,-0.65,-0.61,0.13,-0.02,1.0
732,10.4,0.23,0.43,-0.76,0.05,0.01,1.0
733,9.97,0.66,0.9,-0.48,0.07,-0.05,1.0
734,10.25,0.48,0.43,-0.59,0.07,-0.02,1.0
735,9.96,0.25,-0.32,-0.81,0.02,0.03,1.0
736,10.08,0.62,1.55,-0.61,-0.11,-0.02,1.0
737,10.88,0.45,-0.75,-0.59,-0.02,-0.01,1.0
738,10.23,0.46,0.15,-0.57,-0.02,0.01,1.0
739,9.73,0.02,-0.38,-0.8,0.03,0.11,1.0
740,10.78,0.11,-0.27,-0.62,0.16,-0.05,1.0
741,10.06,-0.02,0.4,-0.63,0.06,-0.04,1.0
742,10.28,0.03,-0.13,-0.53,-0.26,0.02,1.0
743,9.83,0.45,0.06,-0.66,-0.15,-0.1,1.0
744,10.31,0.56,-0.26,-0.6,0.08,-0.06,1.0
745,10.13,0.24,0.66,-0.56,-0.07,-0.01,1.0
746,10.88,0.03,-1.46,-0.69,-0.27,-0.11,1.0
747,10.02,0.14,-0.48,-0.52,0.11,-0.19,1.0
748,10.23,0.27,-0.31,-0.66,-0.06,-0.0,1.0
749,9.43,-0.29,-0.09,-0.56,-0.07,0.14,1.0
750,9.63,0.2,0.31,-0.59,0.05,-0.08,1.0
751,10.18,0.27,0.74,-0.65,-0.04,0.0,1.0
752,10.35,0.26,-0.49,-0.68,-0.02,-0.04,1.0
753,10.11,0.36,-0.21,-0.66,0.02,-0.05,1.0
754,9.8,0.57,-0.17,-0.75,0.17,0.22,1.0
755,10.26,0.02,-0.52,-0.73,-0.22,0.0,1.0
756,9.41,0.55,0.06,-0.61,-0.19,0.09,1.0
757,9.99,0.38,-1.22,-0.6,0.34,0.12,1.0
758,10.22,-0.21,0.96,-0.87,0.43,0.03,1.0
759,10.13,-0.27,1.15,-0.6,0.25,-0.02,1.0
