,AccelX,AccelY,AccelZ,GyroX,GyroY,GyroZ,Mode
0,10.86,-1.53,2.11,-0.87,0.16,-0.27,0.0
1,9.5,-0.7,2.07,-0.55,-0.04,-0.01,0.0
2,10.7,0.08,2.01,-0.3,0.21,0.13,0.0
3,11.02,-0.96,1.14,-0.61,0.16,0.05,0.0
4,10.8,-1.12,1.67,-0.44,-0.13,0.1,0.0
5,9.66,-1.33,2.56,-0.45,0.13,0.08,0.0
6,10.22,-1.38,3.34,-0.78,0.14,-0.2,0.0
7,9.21,-0.43,2.52,-0.63,0.05,-0.04,0.0
8,11.06,-0.23,2.21,-0.45,0.09,0.1,0.0
9,10.56,-0.31,1.34,-0.54,0.02,0.07,0.0
10,11.12,-0.85,1.13,-0.58,-0.12,0.02,0.0
11,9.52,-1.04,2.3,-0.45,0.12,0.03,0.0
12,10.63,-1.08,2.7,-0.8,0.19,-0.22,0.0
13,9.1,-0.33,2.18,-0.47,0.18,-0.05,0.0
14,11.03,-0.11,2.09,-0.43,0.04,0.11,0.0
15,10.63,-0.53,1.4,-0.57,-0.05,0.01,0.0
16,11.26,-0.93,1.3,-0.57,-0.19,0.04,0.0
17,9.33,-1.02,2.3,-0.47,0.14,0.02,0.0
18,9.69,-1.02,2.84,-0.72,0.11,-0.16,0.0
19,10.61,-1.22,2.94,-0.8,0.14,-0.21,0.0
20,9.38,-0.39,2.19,-0.67,0.1,-0.09,0.0
21,10.82,0.33,2.4,-0.42,0.03,0.08,0.0
22,10.82,-0.58,1.41,-0.63,0.02,0.03,0.0
23,10.99,-0.73,1.55,-0.51,-0.1,0.05,0.0
24,9.19,-0.85,2.4,-0.5,0.16,0.04,0.0
25,10.61,-1.0,2.76,-0.78,0.14,-0.22,0.0
26,9.28,-0.18,2.42,-0.57,0.08,-0.07,0.0
27,10.8,0.47,2.36,-0.44,0.04,0.1,0.0
28,11.19,-0.57,1.56,-0.78,0.01,-0.0,0.0
29,11.33,-0.46,1.35,-0.55,-0.11,0.06,0.0
30,9.25,-0.87,2.3,-0.52,0.14,-0.01,0.0
31,10.74,-1.16,2.59,-0.82,0.27,-0.27,0.0
32,11.47,-0.03,1.42,-0.96,-0.15,0.0,0.0
33,10.15,0.09,2.49,-0.72,0.11,-0.19,0.0
34,10.47,-0.05,3.05,-0.64,0.23,0.23,0.0
35,11.15,-0.3,1.95,-0.67,-0.14,-0.08,0.0
36,9.24,-0.96,2.18,-0.33,-0.11,0.05,0.0
37,10.72,-1.1,1.82,-0.76,0.09,-0.2,0.0
38,9.81,-0.18,2.12,-0.67,0.09,-0.09,0.0
39,11.28,-0.07,1.43,-0.6,-0.12,-0.04,0.0
40,11.01,-0.42,1.34,-0.64,-0.01,0.08,0.0
41,9.37,-0.97,2.09,-0.54,0.1,0.03,0.0
42,9.62,-1.12,2.58,-0.71,-0.03,-0.15,0.0
43,9.83,-0.33,2.15,-0.64,0.1,-0.11,0.0
44,10.94,0.01,1.82,-0.4,-0.02,0.11,0.0
45,11.02,-0.23,1.11,-0.65,-0.04,-0.05,0.0
46,9.47,-0.84,2.21,-0.5,0.11,0.04,0.0
47,10.14,-0.4,2.35,-0.68,0.12,-0.08,0.0
48,10.75,0.1,2.14,-0.44,-0.05,0.15,0.0
49,11.25,-0.75,1.04,-0.51,-0.02,0.07,0.0
50,9.32,-0.83,2.28,-0.44,0.2,0.01,0.0
51,10.86,-1.18,3.05,-0.69,0.04,-0.21,0.0
52,9.57,-0.3,2.35,-0.61,0.04,-0.05,0.0
53,10.85,-0.01,2.47,-0.47,0.05,0.13,0.0
54,11.43,-0.81,1.13,-0.63,-0.08,0.0,0.0
55,9.24,-0.96,2.33,-0.63,0.26,0.04,0.0
56,10.78,-1.22,2.63,-0.7,0.02,-0.19,0.0
57,9.59,-0.44,2.25,-0.7,0.11,-0.08,0.0
58,10.89,0.13,2.58,-0.39,0.04,0.06,0.0
59,10.7,-0.38,1.5,-0.67,0.03,-0.03,0.0
60,11.17,-0.8,1.08,-0.62,-0.07,0.03,0.0
61,9.47,-0.79,2.39,-0.6,0.16,0.01,0.0
62,10.03,-1.35,2.6,-0.73,0.1,-0.15,0.0
63,9.79,-0.43,2.23,-0.6,0.11,-0.05,0.0
64,10.69,0.05,2.29,-0.38,0.11,0.13,0.0
65,9.78,-0.69,2.16,-0.52,0.18,0.06,0.0
66,10.96,-1.44,2.59,-0.77,0.13,-0.19,0.0
67,10.04,-0.26,2.58,-0.67,0.07,-0.08,0.0
68,10.7,0.05,2.23,-0.44,0.08,0.09,0.0
69,11.07,-0.33,1.34,-0.66,-0.05,-0.0,0.0
70,11.7,-0.7,1.03,-0.54,-0.06,0.01,0.0
71,9.45,-0.7,2.26,-0.55,0.21,-0.02,0.0
72,9.52,-1.2,2.62,-0.71,0.13,-0.16,0.0
73,11.17,0.02,1.38,-0.86,-0.2,-0.04,0.0
74,9.24,-0.36,2.12,-0.71,-0.0,-0.12,0.0
75,10.47,0.27,2.59,-0.43,0.24,0.13,0.0
76,10.88,0.08,2.26,-0.51,0.2,0.1,0.0
77,11.16,-0.45,1.71,-0.57,-0.04,-0.02,0.0
78,9.32,-0.7,2.35,-0.61,0.23,-0.02,0.0
79,9.9,0.55,1.65,-0.55,-0.04,-0.16,0.0
80,11.09,0.01,1.26,-0.59,-0.08,0.03,0.0
81,11.18,-0.69,1.44,-0.62,-0.0,0.07,0.0
82,9.86,-0.45,2.45,-0.49,0.21,0.03,0.0
83,10.69,-1.13,2.84,-0.75,0.05,-0.19,0.0
84,9.48,-0.06,2.55,-0.56,0.12,-0.08,0.0
85,10.56,0.53,3.0,-0.46,0.2,0.16,0.0
86,9.04,-0.7,2.53,-0.5,0.24,-0.01,0.0
87,10.5,-1.07,2.93,-0.73,0.14,-0.17,0.0
88,10.97,-0.43,1.48,-0.94,-0.11,-0.09,0.0
89,9.34,-0.15,2.6,-0.55,0.15,-0.05,0.0
90,10.56,0.27,3.03,-0.44,0.13,0.12,0.0
91,9.26,-0.85,2.66,-0.51,0.14,-0.01,0.0
92,10.16,-1.31,2.79,-0.77,0.08,-0.22,0.0
93,11.12,-0.67,1.52,-1.0,-0.13,-0.09,0.0
94,9.19,-0.13,2.77,-0.66,0.15,-0.15,0.0
95,10.48,-0.04,2.67,-0.29,0.06,0.18,0.0
96,10.96,0.18,2.54,-0.45,-0.07,0.12,0.0
97,11.18,-0.54,1.6,-0.49,-0.02,0.07,0.0
98,9.07,-0.91,2.2,-0.42,0.08,-0.0,0.0
99,10.47,-1.29,3.05,-0.71,0.11,-0.23,0.0
100,10.79,-0.49,1.49,-0.85,-0.17,-0.07,0.0
101,9.36,0.02,2.53,-0.61,0.0,-0.09,0.0
102,10.43,0.33,2.87,-0.4,0.33,0.26,0.0
103,10.8,0.19,2.57,-0.44,0.21,0.21,0.0
104,11.35,-0.8,1.43,-0.47,-0.12,-0.06,0.0
105,10.41,-1.49,3.14,-0.8,0.17,-0.24,0.0
106,11.43,-0.75,2.12,-0.46,-0.07,-0.17,0.0
107,11.21,-0.61,1.87,-0.88,-0.14,-0.04,0.0
108,9.13,-0.02,2.82,-0.59,0.17,-0.08,0.0
109,10.62,-0.02,3.15,-0.35,0.02,0.2,0.0
110,11.08,-0.78,1.87,-0.61,-0.02,0.01,0.0
111,9.34,-0.67,2.56,-0.52,0.15,-0.07,0.0
112,10.58,-1.13,3.23,-0.85,0.05,-0.25,0.0
113,9.08,-0.03,2.78,-0.54,0.11,-0.04,0.0
114,10.41,0.2,3.06,-0.32,0.12,0.21,0.0
115,10.65,0.17,2.88,-0.47,0.14,0.12,0.0
116,8.86,-0.77,2.87,-0.46,0.14,0.01,0.0
117,9.53,-0.72,3.13,-0.86,0.03,-0.17,0.0
118,10.3,-1.08,3.22,-0.83,0.19,-0.22,0.0
119,11.26,-0.43,1.81,-0.83,-0.13,-0.08,0.0
120,9.36,0.31,2.78,-0.57,0.14,-0.05,0.0
121,10.68,-0.14,2.89,-0.47,0.05,0.09,0.0
122,9.52,-0.78,2.83,-0.59,0.2,-0.03,0.0
123,10.62,-1.06,3.18,-0.79,0.1,-0.24,0.0
124,11.43,-0.68,2.22,-0.48,-0.17,-0.0,0.0
125,11.26,-0.14,2.06,-0.8,-0.06,-0.07,0.0
126,9.19,0.06,2.84,-0.57,0.19,-0.06,0.0
127,9.95,0.34,3.66,-0.51,0.22,0.15,0.0
128,9.22,-0.55,2.74,-0.44,0.16,0.01,0.0
129,10.68,-0.97,3.06,-0.83,0.14,-0.22,0.0
130,11.66,-0.69,1.88,-0.44,-0.04,0.02,0.0
131,10.86,-0.36,1.86,-0.75,-0.21,-0.09,0.0
132,9.28,0.17,2.57,-0.58,0.03,-0.01,0.0
133,10.15,0.48,3.45,-0.52,0.29,0.12,0.0
134,10.94,0.11,2.52,-0.53,0.04,0.01,0.0
135,9.31,-0.68,2.79,-0.56,0.16,-0.04,0.0
136,10.59,-0.98,3.34,-0.67,0.06,-0.13,0.0
137,11.19,-0.22,2.06,-0.83,-0.15,-0.11,0.0
138,9.39,-0.18,2.88,-0.63,0.17,-0.09,0.0
139,10.55,0.02,2.79,-0.32,0.04,0.17,0.0
140,10.7,0.02,3.16,-0.42,0.04,0.1,0.0
141,9.19,-1.07,2.45,-0.53,0.17,-0.04,0.0
142,10.63,-1.01,2.59,-0.73,0.3,-0.27,0.0
143,11.4,-0.49,1.87,-0.54,-0.02,-0.18,0.0
144,10.99,-0.7,1.81,-0.88,-0.16,-0.06,0.0
145,8.75,0.26,2.38,-0.57,-0.0,-0.03,0.0
146,11.11,-0.28,1.92,-0.62,-0.2,0.1,0.0
147,11.27,-0.78,1.84,-0.56,0.05,-0.01,0.0
148,9.65,-1.1,2.44,-0.51,0.24,-0.03,0.0
149,11.32,-0.95,2.48,-0.51,0.05,-0.16,0.0
150,10.83,-0.54,2.31,-0.83,-0.22,-0.1,0.0
151,9.09,0.07,3.28,-0.65,-0.08,-0.12,0.0
152,10.53,0.12,3.3,-0.41,0.02,0.17,0.0
153,9.52,-0.75,2.47,-0.52,0.21,0.01,0.0
154,10.72,-0.34,1.88,-0.86,-0.16,-0.1,0.0
155,9.26,-0.24,2.85,-0.52,-0.04,-0.06,0.0
156,10.53,0.22,2.77,-0.33,0.1,0.19,0.0
157,10.78,0.11,2.32,-0.49,0.1,0.17,0.0
158,9.33,-0.85,2.33,-0.44,0.19,0.04,0.0
159,10.78,-1.23,2.81,-0.88,0.18,-0.23,0.0
160,11.18,-0.36,1.65,-0.99,-0.19,-0.09,0.0
161,9.3,-0.22,2.57,-0.58,0.06,-0.07,0.0
162,10.89,0.02,2.57,-0.27,-0.13,0.2,0.0
163,10.54,-0.12,1.86,-0.52,0.06,0.03,0.0
164,9.18,-1.01,2.26,-0.45,0.13,0.04,0.0
165,10.79,-1.0,2.48,-0.86,0.16,-0.22,0.0
166,11.0,-0.59,1.19,-0.94,-0.21,-0.04,0.0
167,9.56,-0.05,2.47,-0.71,0.1,-0.1,0.0
168,10.69,0.09,2.41,-0.42,0.04,0.21,0.0
169,10.98,-0.52,1.27,-0.63,-0.09,-0.03,0.0
170,9.53,-0.79,2.31,-0.44,0.25,-0.03,0.0
171,10.65,-0.49,1.75,-0.9,-0.11,-0.06,0.0
172,9.55,0.15,3.06,-0.74,0.24,-0.08,0.0
173,10.39,0.62,3.62,-0.49,0.24,0.21,0.0
174,10.75,-0.42,2.76,-0.55,-0.04,0.05,0.0
175,9.14,-0.65,2.81,-0.51,0.08,-0.01,0.0
176,10.48,-1.04,3.21,-0.81,0.08,-0.18,0.0
177,10.78,-0.39,1.84,-0.83,-0.1,-0.06,0.0
178,9.35,-0.09,2.97,-0.64,0.16,-0.07,0.0
179,11.31,-0.22,2.54,-0.47,-0.12,0.01,0.0
180,9.02,-0.74,2.75,-0.52,0.19,-0.01,0.0
181,11.26,-0.42,1.92,-0.83,-0.05,-0.02,0.0
182,9.1,0.18,2.89,-0.65,0.22,-0.08,0.0
183,10.5,0.22,3.19,-0.47,0.09,0.17,0.0
184,10.71,-0.31,2.52,-0.54,0.01,0.03,0.0
185,11.41,-0.46,1.95,-0.65,-0.08,0.03,0.0
186,9.16,-0.9,2.67,-0.53,0.16,-0.03,0.0
187,10.19,-1.24,3.23,-0.74,0.11,-0.2,0.0
188,10.83,-0.36,1.84,-0.88,-0.2,-0.11,0.0
189,9.31,-0.19,2.73,-0.65,0.06,-0.07,0.0
190,10.35,0.05,2.78,-0.37,0.16,0.15,0.0
191,11.06,-0.24,2.3,-0.46,-0.1,0.08,0.0
192,8.79,-0.69,2.54,-0.49,0.28,-0.05,0.0
193,11.3,-0.34,2.14,-0.42,-0.14,-0.17,0.0
194,10.81,-0.19,1.65,-0.85,-0.18,-0.09,0.0
195,9.4,0.04,3.0,-0.63,0.05,-0.03,0.0
196,10.65,0.32,3.13,-0.47,0.12,0.2,0.0
197,9.57,-0.96,2.38,-0.59,0.28,-0.04,0.0
198,10.7,-0.95,2.81,-0.74,0.13,-0.22,0.0
199,11.02,-0.26,1.72,-0.89,-0.12,-0.05,0.0
200,9.32,-0.0,2.81,-0.66,0.07,-0.1,0.0
201,10.68,0.1,2.86,-0.38,0.11,0.22,0.0
202,10.98,-0.39,2.01,-0.58,-0.17,0.03,0.0
203,9.33,-1.09,2.38,-0.49,0.13,-0.01,0.0
204,10.61,-1.33,2.86,-0.8,0.13,-0.27,0.0
205,11.53,-0.48,1.57,-0.91,-0.11,-0.04,0.0
206,9.76,-0.07,2.92,-0.59,0.25,-0.14,0.0
207,10.64,0.29,2.94,-0.38,0.02,0.15,0.0
208,10.89,-0.14,2.34,-0.5,-0.19,0.07,0.0
209,9.39,-0.82,2.47,-0.57,0.13,-0.03,0.0
210,10.62,-1.01,2.48,-0.67,0.14,-0.25,0.0
211,9.9,-0.46,2.4,-0.75,-0.07,-0.07,0.0
212,9.35,-0.37,2.72,-0.6,-0.04,-0.06,0.0
213,10.44,0.56,2.66,-0.4,0.15,0.12,0.0
214,11.13,-0.01,1.62,-0.64,-0.19,0.03,0.0
215,9.01,-1.03,2.34,-0.53,0.11,0.05,0.0
216,10.03,-1.06,3.02,-0.79,0.2,-0.17,0.0
217,11.29,-0.81,1.26,-1.05,-0.19,-0.05,0.0
218,9.48,-0.51,2.78,-0.69,0.18,-0.11,0.0
219,10.84,0.09,2.07,-0.37,-0.19,0.2,0.0
220,10.68,-0.92,1.2,-0.68,-0.03,0.01,0.0
221,9.54,-1.17,2.07,-0.67,0.2,0.03,0.0
222,11.07,-1.1,2.55,-0.81,-0.05,-0.22,0.0
223,9.25,-0.25,1.97,-0.56,0.04,-0.05,0.0
224,10.55,-0.01,2.45,-0.5,-0.0,0.14,0.0
225,11.1,-0.25,1.62,-0.79,0.0,-0.02,0.0
226,9.22,-0.77,2.0,-0.53,0.01,0.05,0.0
227,10.79,-1.52,2.38,-0.8,0.12,-0.24,0.0
228,9.77,-0.34,2.26,-0.75,0.11,-0.08,0.0
229,10.63,-0.18,2.56,-0.46,0.13,0.11,0.0
230,9.05,-0.6,2.17,-0.55,0.13,-0.01,0.0
231,10.59,-1.24,2.49,-0.64,0.16,-0.18,0.0
232,11.2,-0.04,1.37,-0.93,-0.28,-0.06,0.0
233,10.24,-0.2,2.46,-0.83,0.08,-0.1,0.0
234,10.88,0.54,2.8,-0.44,0.21,0.16,0.0
235,10.92,0.37,2.18,-0.77,-0.01,0.1,0.0
236,11.34,-0.8,1.17,-0.35,-0.08,0.0,0.0
237,9.12,-0.81,2.1,-0.29,0.23,0.03,0.0
238,10.92,-0.95,3.1,-0.87,0.01,-0.2,0.0
239,9.37,0.11,2.77,-0.8,0.16,-0.06,0.0
240,10.9,0.2,2.76,-0.44,0.08,0.09,0.0
241,10.87,-0.89,1.5,-0.42,-0.11,0.06,0.0
242,9.17,-0.93,2.46,-0.36,0.08,0.02,0.0
243,10.75,-0.93,2.86,-0.9,0.06,-0.2,0.0
244,9.62,-0.32,2.72,-0.79,0.01,-0.11,0.0
245,10.65,0.16,2.66,-0.41,0.12,0.09,0.0
246,11.26,-0.79,1.22,-0.29,-0.1,-0.02,0.0
247,9.01,-0.74,2.55,-0.28,0.23,0.04,0.0
248,9.6,-0.18,1.76,-0.97,0.06,-0.12,0.0
249,11.08,0.15,2.9,-0.61,0.0,0.14,0.0
250,9.2,-0.85,2.54,-0.53,0.21,0.02,0.0
251,10.51,-1.31,2.74,-0.85,0.13,-0.26,0.0
252,10.95,0.0,1.65,-0.94,-0.16,-0.04,0.0
253,9.85,0.22,2.69,-0.68,0.07,-0.07,0.0
254,10.59,0.27,2.67,-0.39,0.05,0.17,0.0
255,9.29,-0.82,2.26,-0.25,-0.04,0.06,0.0
256,10.26,-1.39,2.48,-0.86,0.2,-0.25,0.0
257,9.37,0.04,2.36,-0.94,-0.02,-0.08,0.0
258,10.77,-0.06,2.56,-0.32,0.14,0.15,0.0
259,11.14,-0.93,1.18,-0.28,-0.11,-0.05,0.0
260,9.03,-0.95,2.23,-0.32,0.12,0.09,0.0
261,10.72,-1.17,3.15,-0.83,0.02,-0.17,0.0
262,9.71,-0.37,2.68,-0.86,0.0,-0.12,0.0
263,10.71,0.06,2.21,-0.43,0.11,0.15,0.0
264,11.01,-0.99,0.91,-0.38,-0.16,-0.03,0.0
265,8.84,-1.16,1.83,-0.37,0.1,0.08,0.0
266,9.99,-1.47,2.78,-0.79,0.19,-0.22,0.0
267,9.44,-0.78,2.37,-0.85,0.03,-0.1,0.0
268,10.59,0.19,2.54,-0.33,0.16,0.09,0.0
269,11.25,-0.74,0.98,-0.23,-0.38,-0.04,0.0
270,9.74,-0.58,2.35,-0.25,0.14,0.04,0.0
271,10.07,-1.27,1.93,-0.85,0.17,-0.11,0.0
272,11.0,-0.4,1.38,-1.06,-0.16,-0.06,0.0
273,11.25,0.2,2.27,-0.31,0.05,0.19,0.0
274,10.81,-0.88,1.14,-0.23,-0.14,-0.04,0.0
275,9.4,-0.9,2.13,-0.25,0.08,0.08,0.0
276,11.17,-0.82,2.36,-0.85,0.1,-0.15,0.0
277,11.07,-0.12,1.44,-1.13,-0.14,-0.08,0.0
278,10.15,-0.21,2.57,-0.87,0.04,-0.09,0.0
279,10.94,-1.06,1.83,-0.41,-0.16,0.02,0.0
280,9.43,-1.57,2.69,-0.62,0.0,-0.15,0.0
281,9.35,-0.73,2.84,-0.8,0.25,-0.07,0.0
282,10.51,-0.11,2.88,-0.35,-0.02,0.07,0.0
283,10.89,-0.38,2.38,-0.47,-0.01,0.07,0.0
284,11.39,-0.37,1.2,-0.51,-0.13,-0.1,0.0
285,8.98,-0.95,2.26,-0.36,0.2,0.02,0.0
286,10.53,-1.11,2.77,-0.71,0.17,-0.16,0.0
287,11.18,-0.28,1.38,-1.18,-0.16,-0.1,0.0
288,9.48,-0.65,2.6,-0.8,0.05,-0.09,0.0
289,10.68,0.34,2.97,-0.27,0.15,0.19,0.0
290,11.23,-0.89,1.28,-0.35,-0.21,-0.04,0.0
291,9.76,-1.02,2.44,-0.35,0.16,0.03,0.0
292,10.46,-1.35,2.68,-0.81,0.08,-0.23,0.0
293,9.72,-0.16,2.66,-0.95,0.01,-0.13,0.0
294,10.72,-0.07,2.86,-0.32,0.16,0.2,0.0
295,9.0,-1.16,2.12,-0.38,0.16,0.09,0.0
296,10.48,-1.24,3.12,-0.8,0.07,-0.15,0.0
297,11.14,-0.69,1.43,-0.86,-0.16,-0.06,0.0
298,9.11,-0.45,2.62,-0.83,0.14,-0.05,0.0
299,11.03,-0.19,2.63,-0.32,0.11,0.13,0.0
300,10.91,-0.89,1.0,-0.49,-0.18,-0.09,0.0
301,9.16,-1.0,1.92,-0.64,0.21,0.09,0.0
302,10.83,-1.32,2.14,-0.86,-0.1,-0.17,0.0
303,11.19,-0.33,1.12,-0.67,-0.17,-0.07,0.0
304,9.45,-0.51,2.15,-0.6,0.07,-0.06,0.0
305,10.73,0.03,1.92,-0.45,-0.05,0.07,0.0
306,11.2,-0.25,1.16,-0.78,0.08,0.03,0.0
307,11.29,-0.5,0.94,-0.53,-0.2,0.0,0.0
308,9.33,-0.74,2.06,-0.54,0.2,-0.0,0.0
309,10.61,-1.4,2.36,-0.8,0.05,-0.17,0.0
310,10.05,-0.36,2.49,-0.55,0.01,-0.07,0.0
311,10.86,0.0,2.67,-0.3,0.04,0.07,0.0
312,11.17,0.44,2.19,-0.69,0.08,-0.02,0.0
313,8.92,-0.76,2.19,-0.64,0.14,-0.06,0.0
314,10.65,-1.0,3.4,-0.79,0.04,-0.15,0.0
315,10.8,-0.25,1.23,-0.78,-0.14,-0.04,0.0
316,9.25,-0.23,2.55,-0.71,0.0,-0.07,0.0
317,10.68,0.04,2.71,-0.44,0.08,0.14,0.0
318,9.14,-0.66,2.13,-0.55,0.19,0.0,0.0
319,10.6,-1.24,2.86,-0.81,0.17,-0.13,0.0
320,11.7,-0.96,1.94,-0.38,-0.06,-0.07,0.0
321,11.18,-0.61,1.2,-0.71,-0.23,0.02,0.0
322,9.39,-0.26,2.44,-0.66,0.03,-0.03,0.0
323,10.35,0.16,3.21,-0.4,0.22,0.14,0.0
324,11.24,-0.27,2.15,-0.78,-0.01,-0.08,0.0
325,9.33,-0.57,2.06,-0.57,0.08,-0.0,0.0
326,10.58,-1.32,3.03,-0.83,-0.02,-0.16,0.0
327,11.03,-0.63,1.46,-0.73,-0.14,-0.02,0.0
328,9.21,-0.36,2.44,-0.69,0.06,-0.08,0.0
329,10.67,0.19,2.76,-0.34,-0.01,0.12,0.0
330,10.83,-0.21,1.64,-0.79,-0.03,0.01,0.0
331,9.13,-0.75,1.89,-0.68,0.16,-0.04,0.0
332,10.81,-1.07,2.64,-0.66,0.09,-0.19,0.0
333,10.02,-0.64,2.17,-0.68,0.09,-0.08,0.0
334,10.93,0.02,2.12,-0.33,-0.04,0.1,0.0
335,11.15,-0.46,1.05,-0.5,-0.01,-0.06,0.0
336,9.17,-0.69,1.99,-0.55,0.17,0.01,0.0
337,10.71,-1.32,2.79,-0.73,0.04,-0.17,0.0
338,10.83,-0.61,1.96,-0.68,-0.11,-0.05,0.0
339,10.42,-0.49,2.51,-0.68,0.03,-0.05,0.0
340,10.42,0.11,2.73,-0.27,0.11,0.07,0.0
341,10.77,0.11,2.61,-0.58,-0.03,-0.03,0.0
342,11.09,-0.26,1.32,-0.72,-0.02,-0.01,0.0
343,9.02,-0.56,2.33,-0.7,0.17,-0.01,0.0
344,11.13,-0.44,1.74,-0.64,-0.22,0.0,0.0
345,9.26,-0.28,2.73,-0.62,0.04,-0.03,0.0
346,10.52,0.24,3.05,-0.32,0.05,0.08,0.0
347,9.54,-0.61,2.12,-0.58,0.25,0.04,0.0
348,10.68,-1.02,2.46,-0.92,-0.07,-0.29,0.0
349,11.83,-1.31,1.3,-0.4,-0.09,-0.05,0.0
350,11.04,-0.62,1.47,-0.64,-0.12,0.01,0.0
351,9.29,-0.48,2.25,-0.59,0.09,-0.03,0.0
352,10.56,-0.19,2.08,-0.36,-0.1,0.12,0.0
353,11.21,-0.83,0.89,-0.6,-0.04,-0.04,0.0
354,9.78,-0.75,1.98,-0.51,0.31,-0.01,0.0
355,10.64,-1.16,2.5,-0.81,-0.01,-0.23,0.0
356,11.17,-0.88,1.5,-0.49,-0.02,-0.18,0.0
357,10.92,-0.67,1.26,-0.69,-0.04,-0.02,0.0
358,9.21,-0.25,2.36,-0.57,0.05,-0.04,0.0
359,10.36,-0.16,2.07,-0.37,-0.11,0.1,0.0
360,11.3,-0.65,0.78,-0.75,-0.04,-0.0,0.0
361,10.85,-1.14,2.24,-0.66,-0.1,-0.25,0.0
362,9.66,-0.46,2.26,-0.56,-0.08,-0.03,0.0
363,10.84,-0.07,1.86,-0.31,-0.03,0.1,0.0
364,11.56,-0.45,0.86,-0.73,-0.06,-0.04,0.0
365,9.67,-0.69,1.72,-0.67,0.25,0.01,0.0
366,10.74,-1.16,2.67,-0.75,0.02,-0.22,0.0
367,11.23,-0.48,1.16,-0.68,-0.18,0.0,0.0
368,9.28,-0.16,2.29,-0.58,-0.04,-0.03,0.0
369,10.8,0.23,2.11,-0.37,0.09,0.11,0.0
370,9.94,-0.54,1.89,-0.67,0.34,0.03,0.0
371,11.35,-0.42,1.34,-0.75,-0.29,0.04,0.0
372,9.58,-0.12,2.47,-0.57,0.0,-0.04,0.0
373,10.5,0.05,2.51,-0.38,0.04,0.12,0.0
374,10.87,-0.06,2.34,-0.51,-0.07,0.04,0.0
375,11.33,-0.56,1.08,-0.69,-0.02,0.02,0.0
376,9.21,-0.86,1.87,-0.57,0.14,0.03,0.0
377,11.58,-0.4,0.96,-0.88,-0.37,-0.02,0.0
378,9.52,-0.58,2.5,-0.54,-0.03,-0.08,0.0
379,10.25,0.34,2.22,-0.26,0.02,0.11,0.0
380,10.93,-0.25,2.09,-0.49,0.08,0.02,0.0
381,9.17,-0.7,1.82,-0.59,0.08,0.02,0.0
382,11.51,-0.57,1.41,-0.85,-0.27,0.01,0.0
383,9.64,-0.33,2.28,-0.65,0.16,-0.06,0.0
384,10.51,-0.01,2.57,-0.32,-0.0,0.07,0.0
385,9.33,-0.59,2.1,-0.62,0.12,-0.01,0.0
386,10.75,-1.34,2.47,-0.73,0.06,-0.25,0.0
387,11.15,-0.44,1.26,-0.79,-0.14,-0.02,0.0
388,9.09,-0.27,2.37,-0.63,0.09,-0.01,0.0
389,10.71,-0.02,2.85,-0.27,0.07,0.17,0.0
390,11.3,-0.77,1.64,-0.78,0.0,-0.15,0.0
391,11.74,-0.42,1.4,-0.75,-0.39,-0.05,0.0
392,9.48,-0.15,2.77,-0.62,0.24,-0.1,0.0
393,10.86,-0.17,2.31,-0.37,-0.18,0.09,0.0
394,11.64,-0.15,1.0,-0.71,-0.24,-0.0,0.0
395,8.76,-0.98,2.19,-0.68,0.15,0.03,0.0
396,10.39,-1.05,1.98,-0.81,0.09,-0.28,0.0
397,9.3,-0.35,2.19,-0.65,0.09,-0.02,0.0
398,10.76,-0.26,2.62,-0.3,0.11,0.06,0.0
399,11.11,0.05,1.5,-0.54,0.01,-0.05,0.0
400,10.67,-1.08,3.22,-0.76,0.05,-0.25,0.0
401,11.08,-0.68,1.98,-0.89,-0.21,0.03,0.0
402,9.28,-0.32,3.04,-0.61,-0.01,-0.03,0.0
403,10.69,0.3,2.99,-0.25,0.04,0.26,0.0
404,9.68,-0.63,2.28,-0.68,0.3,-0.06,0.0
405,10.41,-1.53,3.13,-0.63,-0.02,-0.22,0.0
406,9.18,-0.11,2.81,-0.67,0.09,-0.03,0.0
407,10.64,0.08,2.98,-0.29,-0.06,0.11,0.0
408,9.1,-0.43,2.39,-0.75,0.2,-0.03,0.0
409,10.69,-1.55,2.75,-0.66,0.07,-0.25,0.0
410,10.59,-0.43,1.29,-0.83,-0.08,-0.04,0.0
411,9.57,-0.12,2.31,-0.77,0.04,-0.05,0.0
412,10.59,0.1,2.74,-0.38,-0.04,0.12,0.0
413,9.15,-0.44,2.0,-0.62,0.17,0.01,0.0
414,11.36,-0.68,1.31,-0.81,-0.27,-0.02,0.0
415,9.39,-0.17,2.24,-0.52,0.08,-0.06,0.0
416,10.73,-0.03,2.09,-0.41,-0.0,0.14,0.0
417,9.26,-0.64,1.87,-0.35,0.23,0.02,0.0
418,10.97,-0.87,2.56,-0.8,0.01,-0.2,0.0
419,11.41,-0.15,1.28,-0.84,-0.1,-0.03,0.0
420,9.29,-0.09,2.16,-0.73,0.07,-0.13,0.0
421,10.91,-0.12,2.34,-0.25,0.04,0.12,0.0
422,9.12,-0.73,1.78,-0.37,0.21,0.07,0.0
423,10.18,-1.41,2.51,-0.66,0.05,-0.26,0.0
424,10.92,-0.18,1.37,-0.89,-0.12,-0.07,0.0
425,9.34,-0.08,2.19,-0.72,-0.02,-0.12,0.0
426,10.98,-0.09,2.12,-0.29,0.05,0.12,0.0
427,10.9,0.18,1.63,-0.5,-0.04,0.05,0.0
428,10.86,-1.04,0.66,-0.4,0.09,-0.09,0.0
429,9.14,-0.99,1.47,-0.39,0.17,0.06,0.0
430,10.69,-0.86,2.2,-0.85,-0.07,-0.24,0.0
431,11.08,-0.29,1.38,-0.82,-0.06,-0.04,0.0
432,9.09,-0.41,1.9,-0.77,0.02,-0.09,0.0
433,10.78,0.0,2.27,-0.24,0.04,0.17,0.0
434,11.66,-0.68,0.92,-0.3,-0.28,-0.06,0.0
435,9.12,-0.79,1.94,-0.37,0.27,0.03,0.0
436,10.94,-1.17,2.21,-0.78,-0.04,-0.22,0.0
437,9.6,-0.4,2.21,-0.74,0.07,-0.07,0.0
438,10.58,-0.29,2.67,-0.32,0.01,0.07,0.0
439,11.48,-0.89,1.07,-0.38,0.05,-0.04,0.0
440,8.97,-0.96,1.87,-0.33,0.24,0.03,0.0
441,10.33,-1.09,2.9,-0.75,-0.01,-0.25,0.0
442,10.95,-0.43,1.55,-0.88,-0.2,-0.06,0.0
443,9.05,-0.28,2.26,-0.76,0.01,-0.07,0.0
444,10.92,0.13,2.41,-0.37,0.03,0.13,0.0
445,11.57,-0.56,1.03,-0.36,-0.11,-0.08,0.0
446,9.19,-0.81,1.77,-0.34,0.17,0.05,0.0
447,10.51,-1.24,2.55,-0.77,0.07,-0.3,0.0
448,10.86,-0.6,1.24,-0.8,-0.06,-0.02,0.0
449,9.21,-0.02,2.46,-0.77,0.11,-0.07,0.0
450,10.73,0.0,2.53,-0.35,-0.06,0.08,0.0
451,9.68,-1.14,2.17,-0.4,0.21,0.05,0.0
452,10.99,-1.42,2.51,-0.83,0.07,-0.21,0.0
453,9.37,-0.18,2.52,-0.87,-0.01,-0.1,0.0
454,10.57,0.47,2.26,-0.34,0.04,0.12,0.0
455,11.25,-0.73,1.04,-0.34,-0.01,-0.07,0.0
456,8.95,-1.05,1.92,-0.24,0.17,0.09,0.0
457,10.49,-1.4,2.2,-0.85,0.04,-0.25,0.0
458,11.14,-0.42,1.25,-0.91,-0.13,-0.08,0.0
459,9.63,-0.12,2.22,-0.81,0.07,-0.15,0.0
460,10.87,0.19,2.11,-0.22,-0.01,0.16,0.0
461,11.25,-0.55,0.62,-0.32,-0.05,-0.09,0.0
462,9.27,-0.46,1.68,-0.38,0.14,0.06,0.0
463,9.76,-1.36,2.3,-0.72,0.12,-0.23,0.0
464,11.31,-0.54,1.21,-0.92,-0.08,-0.07,0.0
465,9.17,-0.05,2.25,-0.83,0.17,-0.11,0.0
466,10.77,-0.0,2.38,-0.29,-0.06,0.13,0.0
467,9.17,-0.9,2.05,-0.4,0.31,0.09,0.0
468,10.64,-1.07,1.96,-0.79,-0.01,-0.25,0.0
469,11.06,-0.42,1.13,-0.79,-0.16,-0.07,0.0
470,9.19,-0.39,2.13,-0.72,0.07,-0.07,0.0
471,10.6,-0.02,2.16,-0.39,0.05,0.08,0.0
472,9.06,-0.82,1.58,-0.34,0.14,0.1,0.0
473,10.87,-1.48,1.87,-0.88,0.11,-0.27,0.0
474,9.29,-0.38,2.14,-0.76,-0.02,-0.07,0.0
475,10.59,0.24,2.06,-0.27,0.04,0.17,0.0
476,11.8,-0.88,0.71,-0.4,-0.16,-0.06,0.0
477,9.11,-0.93,2.09,-0.39,0.31,0.1,0.0
478,10.56,-1.5,2.29,-0.79,-0.15,-0.22,0.0
479,9.41,-0.45,2.51,-0.65,-0.01,-0.03,0.0
480,10.85,-0.06,2.33,-0.46,-0.0,0.05,0.0
481,11.1,-0.73,1.05,-0.3,-0.21,0.01,0.0
482,9.01,-0.72,2.07,-0.46,0.11,0.03,0.0
483,9.97,-1.54,2.34,-0.78,-0.01,-0.17,0.0
484,11.07,-0.46,1.06,-1.01,-0.17,-0.1,0.0
485,9.96,-0.41,2.26,-0.93,0.01,-0.13,0.0
486,10.55,-0.02,2.57,-0.34,-0.02,0.03,0.0
487,11.14,-0.56,0.57,-0.33,-0.15,-0.13,0.0
488,9.04,-0.7,1.61,-0.4,0.11,0.09,0.0
489,10.97,-1.19,2.59,-0.85,0.1,-0.15,0.0
490,9.31,-0.1,2.1,-0.85,0.03,-0.12,0.0
491,10.81,0.11,2.04,-0.19,0.06,0.14,0.0
492,10.85,-0.52,0.84,-0.33,-0.1,0.02,0.0
493,9.21,-0.57,1.58,-0.52,0.19,0.09,0.0
494,10.92,-1.44,2.43,-0.75,-0.03,-0.17,0.0
495,10.92,-0.59,1.33,-0.69,-0.03,-0.03,0.0
496,9.09,-0.06,2.12,-0.59,0.05,-0.07,0.0
497,11.05,0.08,2.04,-0.4,-0.05,0.11,0.0
498,11.34,-0.51,0.59,-0.35,-0.17,-0.07,0.0
499,8.94,-0.84,1.86,-0.47,0.2,0.05,0.0
500,10.83,-1.4,2.25,-0.88,0.08,-0.2,0.0
501,9.37,-0.2,1.86,-0.67,-0.05,-0.08,0.0
502,10.7,0.15,2.42,-0.35,0.18,0.1,0.0
503,10.91,-0.0,1.85,-0.53,0.11,0.06,0.0
504,9.39,-0.78,1.58,-0.4,0.19,0.09,0.0
505,10.76,-1.06,1.91,-0.92,-0.0,-0.25,0.0
506,9.42,-0.29,1.87,-0.78,-0.05,-0.1,0.0
507,11.2,-0.26,1.71,-0.31,-0.04,0.12,0.0
508,11.13,-0.57,0.41,-0.22,-0.01,-0.1,0.0
509,9.51,-0.41,1.09,-0.31,0.17,-0.01,0.0
510,9.95,-1.45,2.21,-0.82,0.18,-0.2,0.0
511,10.71,-0.64,0.91,-0.93,-0.06,-0.03,0.0
512,9.14,-0.33,1.81,-0.8,0.03,-0.07,0.0
513,10.59,0.12,2.08,-0.3,0.09,0.14,0.0
514,11.52,-0.44,0.58,-0.26,-0.03,-0.11,0.0
515,9.09,-0.67,1.75,-0.36,0.25,0.06,0.0
516,11.04,-1.26,2.15,-0.93,-0.1,-0.23,0.0
517,9.2,-0.32,1.54,-0.47,0.13,-0.03,0.0
518,9.66,0.09,2.26,-0.03,-0.07,0.13,0.0
519,10.57,0.16,2.15,-0.2,0.15,0.13,0.0
520,10.57,-0.31,1.81,-0.61,-0.04,0.11,0.0
521,11.51,-0.35,1.06,-0.48,-0.1,-0.05,0.0
522,8.89,-1.08,2.08,-0.49,0.24,0.1,0.0
523,10.54,-0.85,1.93,-0.97,-0.02,-0.2,0.0
524,10.78,-0.66,0.89,-0.79,0.01,0.01,0.0
525,9.39,-0.79,1.84,-0.68,0.07,-0.08,0.0
526,10.27,-0.3,2.56,-0.32,0.22,0.07,0.0
527,11.53,-0.18,1.25,-0.48,-0.09,-0.13,0.0
528,8.98,-0.78,1.89,-0.65,0.17,0.03,0.0
529,10.64,-1.65,2.15,-0.87,0.06,-0.25,0.0
530,9.32,-0.51,2.08,-0.83,-0.02,-0.08,0.0
531,11.15,-0.58,2.1,-0.53,-0.13,0.12,0.0
532,10.8,-0.24,0.81,-0.35,-0.1,-0.07,0.0
533,9.09,-0.8,1.95,-0.61,0.15,0.08,0.0
534,11.02,-1.67,2.08,-0.86,0.0,-0.24,0.0
535,10.43,-0.26,0.65,-0.68,0.01,0.04,0.0
536,9.24,-0.41,1.89,-0.65,0.04,-0.01,0.0
537,10.85,-0.36,1.66,-0.68,-0.15,0.06,0.0
538,11.54,-0.04,0.88,-0.49,-0.02,-0.13,0.0
539,9.07,-0.77,1.83,-0.6,0.34,0.05,0.0
540,11.08,-0.01,1.08,-0.88,-0.14,-0.01,0.0
541,9.05,-0.17,2.18,-0.73,0.03,-0.08,0.0
542,10.98,-0.16,1.94,-0.25,-0.04,0.14,0.0
543,9.17,-0.95,1.78,-0.71,0.28,0.14,0.0
544,11.19,-0.98,1.24,-0.67,-0.06,-0.01,0.0
545,9.43,-0.58,2.04,-0.54,0.16,-0.05,0.0
546,10.56,-0.14,2.43,-0.31,0.08,0.05,0.0
547,11.05,-0.47,1.54,-0.66,-0.24,-0.03,0.0
548,8.89,-0.74,1.87,-0.6,0.22,0.08,0.0
549,10.91,-1.16,1.73,-0.99,0.06,-0.29,0.0
550,10.49,0.03,0.61,-0.86,-0.02,-0.0,0.0
551,9.34,-0.32,1.66,-0.74,0.01,-0.03,0.0
552,10.28,-0.18,2.28,-0.63,0.22,0.13,0.0
553,11.57,-0.29,1.06,-0.4,0.0,-0.12,0.0
554,9.07,-0.72,2.15,-0.43,0.27,0.14,0.0
555,10.04,-0.51,1.99,-0.71,0.04,-0.08,0.0
556,10.95,0.07,1.98,-0.48,0.07,0.2,0.0
557,11.15,-0.49,1.23,-0.37,-0.02,-0.08,0.0
558,8.95,-0.87,2.33,-0.42,0.17,0.09,0.0
559,9.28,-0.53,2.59,-0.62,0.02,-0.07,0.0
560,10.67,-0.2,2.64,-0.3,-0.05,0.13,0.0
561,10.96,-0.37,1.85,-0.61,-0.14,-0.02,0.0
562,9.24,-1.03,2.29,-0.53,0.15,0.05,0.0
563,10.43,-1.23,2.51,-0.86,0.06,-0.13,0.0
564,11.13,-0.52,1.42,-0.87,-0.11,0.05,0.0
565,9.6,-0.86,2.45,-0.71,-0.06,-0.07,0.0
566,10.73,-0.56,2.71,-0.35,0.06,0.04,0.0
567,11.32,-0.74,1.51,-0.47,-0.09,-0.1,0.0
568,8.91,-0.99,2.23,-0.43,0.2,-0.02,0.0
569,10.26,-1.37,2.77,-0.74,-0.09,-0.23,0.0
570,10.85,-0.74,0.82,-0.84,-0.11,0.02,0.0
571,9.16,-0.56,2.53,-0.64,0.08,-0.07,0.0
572,10.57,-0.46,2.5,-0.24,-0.02,0.05,0.0
573,10.95,-0.45,2.2,-0.55,0.09,0.09,0.0
574,9.17,-0.56,2.31,-0.56,0.23,0.07,0.0
575,10.41,-1.26,2.53,-0.74,-0.07,-0.17,0.0
576,10.92,-1.05,1.76,-0.74,-0.04,0.01,0.0
577,8.91,-0.75,2.31,-0.68,0.06,-0.07,0.0
578,10.81,-0.34,2.64,-0.22,-0.02,0.1,0.0
579,9.0,-0.83,2.23,-0.68,0.24,0.08,0.0
580,10.63,-1.3,2.21,-0.83,-0.08,-0.24,0.0
581,11.1,-0.89,1.4,-0.75,-0.02,-0.04,0.0
582,9.11,-0.5,2.41,-0.66,0.07,-0.08,0.0
583,10.94,-0.51,2.37,-0.29,-0.02,0.09,0.0
584,10.81,-0.19,2.24,-0.56,0.11,0.09,0.0
585,9.07,-0.47,2.12,-0.64,0.17,0.04,0.0
586,10.37,-1.74,2.43,-0.83,0.03,-0.28,0.0
587,11.24,-1.01,1.27,-0.71,-0.04,-0.03,0.0
588,9.03,-0.4,2.28,-0.6,0.14,0.0,0.0
589,11.09,-0.24,2.67,-0.44,-0.1,0.12,0.0
590,11.71,-0.69,1.53,-0.53,-0.25,-0.01,0.0
591,9.72,-0.81,2.22,-0.63,0.22,0.0,0.0
592,10.8,-0.23,1.48,-0.92,-0.1,0.02,0.0
593,10.05,-0.41,2.22,-0.8,0.1,-0.02,0.0
594,10.07,0.05,3.19,-0.48,0.12,0.15,0.0
595,10.9,-0.38,1.71,-0.56,-0.19,-0.07,0.0
596,8.77,-1.06,1.81,-0.6,0.01,0.04,0.0
597,10.48,-1.84,2.68,-0.95,-0.01,-0.22,0.0
598,8.76,-0.38,2.04,-0.79,0.02,-0.03,0.0
599,10.27,-0.25,2.75,-0.37,0.02,0.15,0.0
600,11.18,-0.44,1.36,-0.45,-0.19,-0.05,0.0
601,8.54,-0.89,1.83,-0.54,0.07,0.16,0.0
602,10.49,-1.3,2.78,-0.99,-0.02,-0.28,0.0
603,10.99,-0.62,0.63,-0.87,-0.0,-0.07,0.0
604,9.56,-0.54,2.01,-0.74,0.19,-0.04,0.0
605,10.07,-0.17,2.47,-0.59,0.16,0.06,0.0
606,11.3,-0.61,1.31,-0.36,-0.24,0.02,0.0
607,9.01,-0.89,2.06,-0.43,0.09,0.15,0.0
608,10.54,-1.36,2.34,-0.83,0.07,-0.24,0.0
609,10.35,-0.04,0.68,-0.66,-0.1,-0.04,0.0
610,9.22,-0.29,1.56,-0.8,0.02,-0.0,0.0
611,11.05,-0.22,1.6,-0.7,0.01,0.07,0.0
612,11.44,-0.63,1.12,-0.42,-0.11,-0.03,0.0
613,9.56,-0.93,2.15,-0.42,0.22,0.13,0.0
614,11.08,-1.49,2.74,-0.83,-0.13,-0.24,0.0
615,11.27,-0.63,1.33,-0.77,-0.08,-0.01,0.0
616,8.85,-0.65,2.19,-0.73,-0.02,-0.08,0.0
617,10.83,-0.81,2.51,-0.34,-0.16,0.12,0.0
618,9.09,-0.96,1.86,-0.51,0.25,0.05,0.0
619,10.62,-1.46,2.09,-0.82,-0.04,-0.22,0.0
620,10.85,-0.67,1.22,-0.69,0.0,0.05,0.0
621,9.14,-0.9,1.77,-0.55,0.02,-0.03,0.0
622,10.71,-0.59,1.98,-0.21,0.02,0.05,0.0
623,10.03,-0.21,2.45,-0.52,0.23,0.15,0.0
624,11.56,0.38,1.46,-0.88,-0.06,-0.06,0.0
625,9.05,-0.67,1.89,-0.51,0.15,0.13,0.0
626,10.87,-1.47,2.78,-1.0,-0.01,-0.18,0.0
627,11.12,-0.73,0.71,-0.95,-0.13,-0.01,0.0
628,9.05,-1.17,2.19,-0.67,-0.05,-0.06,0.0
629,10.65,-0.36,2.14,-0.35,0.13,0.06,0.0
630,11.21,-0.65,1.32,-0.34,-0.13,-0.0,0.0
631,9.66,-0.3,1.98,-0.44,0.24,0.01,0.0
632,10.87,-1.32,2.54,-0.89,-0.11,-0.16,0.0
633,11.16,-0.54,0.99,-0.87,-0.14,0.01,0.0
634,9.36,-0.49,2.01,-0.73,0.15,-0.08,0.0
635,10.64,-0.57,2.19,-0.46,0.2,0.06,0.0
636,10.84,-0.42,1.98,-0.63,0.05,0.09,0.0
637,10.81,-0.65,1.16,-0.44,-0.15,-0.02,0.0
638,9.51,-0.87,2.04,-0.54,0.15,0.04,0.0
639,11.05,-1.66,2.21,-0.73,-0.07,-0.17,0.0
640,10.93,-0.41,0.67,-0.91,-0.15,0.01,0.0
641,9.35,-0.71,1.94,-0.78,0.08,-0.06,0.0
642,10.83,-0.02,2.08,-0.18,0.11,0.12,0.0
643,11.47,-0.69,1.06,-0.53,-0.17,0.01,0.0
644,9.1,-1.14,1.85,-0.46,0.25,0.05,0.0
645,10.55,-1.5,2.01,-0.75,0.05,-0.25,0.0
646,10.81,-0.4,0.84,-0.77,-0.04,0.02,0.0
647,9.51,-0.77,1.79,-0.79,0.12,-0.03,0.0
648,10.56,-0.08,2.21,-0.29,0.1,0.08,0.0
649,11.48,-0.44,0.78,-0.62,-0.25,-0.11,0.0
650,9.1,-1.18,1.67,-0.55,0.22,0.08,0.0
651,10.92,-1.38,2.59,-0.79,-0.02,-0.15,0.0
652,9.42,-0.51,2.11,-0.75,0.14,-0.06,0.0
653,10.45,-0.25,2.51,-0.39,0.09,0.09,0.0
654,10.78,-0.91,1.24,-0.69,0.01,-0.01,0.0
655,9.15,-1.21,2.05,-0.58,0.16,0.1,0.0
656,10.3,-1.66,2.26,-0.79,0.03,-0.21,0.0
657,9.03,-0.46,2.46,-0.63,0.04,-0.06,0.0
658,10.69,-0.69,3.01,-0.42,-0.03,0.12,0.0
659,9.24,-0.71,2.13,-0.58,0.16,0.05,0.0
660,10.03,-1.69,2.2,-0.76,0.07,-0.18,0.0
661,9.39,-0.97,2.09,-0.62,-0.03,-0.06,0.0
662,10.86,-0.73,2.34,-0.3,0.05,0.05,0.0
663,11.13,-0.34,1.3,-0.78,-0.06,-0.09,0.0
664,10.64,-0.91,1.59,-0.59,-0.04,0.07,0.0
665,8.85,-1.06,1.89,-0.61,0.1,0.15,0.0
666,11.13,-1.84,2.7,-0.85,-0.0,-0.19,0.0
667,9.62,-0.76,2.38,-0.74,-0.13,-0.03,0.0
668,10.54,-0.0,2.62,-0.4,0.1,0.09,0.0
669,11.5,-0.47,0.91,-0.49,-0.08,-0.08,0.0
670,8.93,-0.6,1.93,-0.58,0.18,0.06,0.0
671,10.74,-0.97,2.44,-0.74,-0.05,-0.21,0.0
672,11.04,-0.47,1.0,-0.79,-0.1,0.02,0.0
673,9.12,-0.4,1.87,-0.64,-0.02,-0.01,0.0
674,10.71,-0.14,2.21,-0.31,0.18,0.13,0.0
675,11.3,-0.35,1.18,-0.8,-0.01,-0.0,0.0
676,11.73,-0.6,1.17,-0.51,-0.06,-0.09,0.0
677,9.44,-0.83,2.31,-0.57,0.2,0.05,0.0
678,10.47,-0.86,2.37,-0.79,-0.0,-0.26,0.0
679,9.27,-0.61,2.25,-0.76,0.01,-0.11,0.0
680,10.78,-0.4,2.07,-0.24,-0.01,0.09,0.0
681,9.48,-0.76,1.59,-0.58,0.12,0.06,0.0
682,10.79,-1.31,2.39,-0.8,0.03,-0.21,0.0
683,10.92,-0.43,0.93,-0.94,-0.02,0.05,0.0
684,9.02,-0.23,2.07,-0.77,0.03,-0.04,0.0
685,10.63,-0.38,1.87,-0.1,0.09,0.11,0.0
686,11.17,0.32,1.21,-0.55,-0.06,0.05,0.0
687,9.19,-0.71,1.72,-0.53,0.2,0.11,0.0
688,10.52,-1.02,1.57,-0.74,0.16,-0.32,0.0
689,9.4,-0.48,1.59,-0.82,-0.04,-0.1,0.0
690,10.82,0.6,1.77,-0.57,0.18,0.1,0.0
691,10.06,-0.65,1.72,-0.44,0.22,0.1,0.0
692,10.65,-1.04,2.45,-0.76,-0.04,-0.25,0.0
693,10.76,-0.34,1.14,-0.82,-0.11,0.01,0.0
694,9.18,-0.59,2.14,-0.68,-0.03,-0.06,0.0
695,10.63,-0.01,2.19,-0.36,0.06,0.07,0.0
696,9.32,-0.9,1.6,-0.63,0.13,0.09,0.0
697,10.68,-1.45,2.61,-0.81,0.13,-0.2,0.0
698,9.26,-0.31,1.92,-0.8,0.07,-0.07,0.0
699,10.57,-0.05,2.58,-0.28,0.12,0.13,0.0
700,11.34,-0.54,1.19,-0.58,-0.17,0.01,0.0
701,8.88,-1.05,2.01,-0.62,0.14,0.09,0.0
702,10.4,-1.36,2.21,-0.83,0.06,-0.32,0.0
703,9.4,-0.41,2.0,-0.61,-0.06,-0.06,0.0
704,10.6,0.38,2.07,-0.33,0.1,0.14,0.0
705,11.82,-0.3,0.72,-0.54,-0.06,-0.08,0.0
706,9.9,-0.43,1.87,-0.58,0.28,0.01,0.0
707,10.89,-1.13,2.1,-1.01,-0.12,-0.27,0.0
708,9.34,-0.49,1.4,-0.64,-0.05,-0.03,0.0
709,9.88,0.21,2.41,-0.45,0.16,0.11,0.0
710,11.35,0.11,0.76,-0.73,-0.2,0.03,0.0
711,10.07,-0.51,1.89,-0.65,0.22,0.06,0.0
712,9.35,-0.53,2.1,-0.34,-0.07,-0.0,0.0
713,10.73,-0.1,1.55,-0.44,0.02,0.06,0.0
714,11.28,-0.35,0.77,-0.8,-0.04,0.03,0.0
715,10.69,-0.6,1.05,-0.49,-0.23,-0.1,0.0
716,9.61,-0.95,1.96,-0.5,-0.03,0.04,0.0
717,10.49,-1.63,1.85,-0.67,0.21,-0.16,0.0
718,9.45,-0.66,2.04,-0.75,0.14,-0.04,0.0
719,10.84,-0.25,1.75,-0.65,0.03,0.13,0.0
720,11.37,-0.63,1.24,-0.4,-0.09,-0.14,0.0
721,10.1,-0.76,2.19,-0.47,0.09,0.0,0.0
722,10.57,-1.74,2.38,-0.75,-0.04,-0.22,0.0
723,10.16,-0.27,2.51,-0.8,-0.04,-0.1,0.0
724,10.47,-0.29,2.16,-0.46,0.22,0.15,0.0
725,11.2,-0.17,1.13,-0.45,-0.01,-0.28,0.0
726,9.32,-0.61,1.86,-0.56,0.22,-0.03,0.0
727,9.66,-1.45,2.18,-0.78,0.06,-0.18,0.0
728,9.05,-0.7,2.07,-0.64,-0.04,0.02,0.0
729,10.72,-0.61,2.3,-0.34,0.03,0.07,0.0
730,10.88,-0.55,2.15,-0.45,0.17,0.08,0.0
731,11.47,-0.64,1.17,-0.6,-0.1,-0.07,0.0
732,9.51,-1.05,2.13,-0.61,0.34,0.02,0.0
733,10.73,-1.59,2.64,-0.72,0.04,-0.18,0.0
734,9.05,-0.24,2.28,-0.83,0.06,-0.1,0.0
735,10.69,-0.38,2.3,-0.31,0.0,0.11,0.0
736,9.01,-1.23,2.04,-0.62,0.29,0.05,0.0
737,10.88,-1.25,3.13,-0.64,-0.04,-0.19,0.0
738,11.54,-0.66,1.08,-0.72,-0.16,0.01,0.0
739,9.16,-0.19,2.14,-0.74,0.13,-0.05,0.0
740,11.15,0.09,3.08,-0.4,-0.01,0.12,0.0
741,10.45,-1.47,2.33,-0.86,-0.07,-0.25,0.0
742,11.66,-0.3,1.22,-0.91,-0.21,-0.09,0.0
743,8.79,-0.49,2.43,-0.73,0.15,-0.08,0.0
744,11.23,-0.25,2.5,-0.3,-0.0,0.19,0.0
745,11.62,-0.5,0.94,-0.37,-0.15,-0.19,0.0
746,8.86,-0.67,1.61,-0.48,0.18,0.0,0.0
747,10.97,-0.09,0.88,-0.96,-0.0,-0.01,0.0
748,9.16,-0.29,2.39,-0.73,0.17,-0.07,0.0
749,10.72,0.33,2.59,-0.29,0.17,0.13,0.0
750,8.96,-0.8,1.51,-0.49,0.19,0.09,0.0
751,10.87,-1.12,1.56,-0.81,-0.04,-0.2,0.0
752,9.44,-0.63,1.87,-0.92,0.04,-0.08,0.0
753,10.52,0.06,1.89,-0.3,0.08,0.11,0.0
754,10.95,-0.12,1.67,-0.5,-0.18,0.1,0.0
755,11.82,-0.28,0.68,-0.42,-0.18,-0.16,0.0
756,9.33,-0.46,1.88,-0.43,0.21,0.07,0.0
757,10.86,-1.37,1.98,-0.83,-0.04,-0.18,0.0
758,9.46,-0.27,0.83,-0.9,-0.07,-0.07,0.0
759,10.54,-0.1,2.09,-0.37,0.19,0.07,0.0
760,10.97,0.24,1.21,-0.68,-0.07,0.13,0.0
761,9.12,-0.74,1.63,-0.44,0.17,0.11,0.0
762,10.27,-1.43,1.99,-0.7,0.14,-0.23,0.0
763,9.39,-0.44,2.04,-0.88,0.17,-0.04,0.0
764,10.98,-0.05,2.07,-0.29,0.03,0.14,0.0
765,11.51,-0.6,0.51,-0.32,-0.02,-0.11,0.0
766,9.2,-0.74,1.93,-0.44,0.22,0.08,0.0
767,9.55,-0.11,1.34,-0.96,0.05,-0.09,0.0
768,10.35,-0.03,2.62,-0.25,0.11,0.11,0.0
769,10.99,0.1,2.01,-0.54,-0.15,0.09,0.0
770,9.38,-0.64,2.04,-0.35,0.22,0.12,0.0
771,10.57,-1.14,1.97,-0.79,0.01,-0.2,0.0
772,9.3,-0.1,1.78,-1.02,0.12,-0.11,0.0
773,10.62,0.25,2.66,-0.27,0.13,0.09,0.0
774,10.9,-0.04,2.08,-0.5,-0.07,0.14,0.0
775,10.99,-0.69,1.02,-0.34,-0.19,-0.14,0.0
776,9.14,-0.58,1.67,-0.41,0.11,0.05,0.0
777,11.09,-1.0,2.62,-0.87,-0.14,-0.16,0.0
778,10.59,-0.39,0.89,-0.83,-0.02,-0.02,0.0
779,9.19,-0.43,1.95,-0.75,0.08,-0.11,0.0
780,10.9,-0.01,2.31,-0.25,0.04,0.07,0.0
781,9.16,-0.86,2.01,-0.43,0.16,0.08,0.0
782,11.16,-1.34,2.06,-0.78,-0.05,-0.15,0.0
783,10.95,-0.42,0.61,-0.95,-0.06,-0.08,0.0
784,9.35,-0.41,2.17,-0.87,0.07,-0.09,0.0
785,10.82,-0.05,1.87,-0.34,0.13,0.1,0.0
786,9.55,-0.66,1.89,-0.38,0.23,0.06,0.0
787,10.74,-1.4,2.13,-0.84,-0.02,-0.2,0.0
788,10.91,-0.39,0.91,-0.87,-0.13,-0.05,0.0
789,8.83,-0.47,2.07,-0.72,0.04,-0.08,0.0
790,10.95,0.02,1.95,-0.33,0.03,0.12,0.0
791,9.0,-0.91,2.23,-0.44,0.28,0.04,0.0
792,11.38,-1.56,2.2,-0.79,-0.08,-0.16,0.0
793,9.3,-0.43,2.29,-0.75,-0.0,-0.07,0.0
794,10.69,-0.17,1.93,-0.34,0.09,0.05,0.0
795,9.14,-0.71,1.94,-0.4,0.15,0.12,0.0
796,10.25,-1.33,2.03,-0.88,0.08,-0.2,0.0
797,9.81,-0.57,1.93,-0.88,0.0,-0.08,0.0
798,10.71,0.16,1.8,-0.29,0.11,0.11,0.0
799,11.65,-0.41,0.7,-0.38,-0.23,-0.12,0.0
800,8.99,-0.85,1.68,-0.37,0.19,0.06,0.0
801,9.95,-1.47,2.12,-0.76,0.11,-0.18,0.0
802,11.11,-1.05,0.7,-0.91,-0.16,-0.0,0.0
803,9.2,-0.53,2.0,-0.87,0.1,-0.03,0.0
804,10.67,0.11,1.7,-0.35,0.08,0.12,0.0
805,9.67,-0.86,1.84,-0.38,0.37,0.07,0.0
806,10.54,-1.45,2.03,-0.81,0.03,-0.21,0.0
807,11.32,-0.4,1.15,-0.8,-0.21,-0.07,0.0
808,9.46,-0.69,2.34,-0.62,0.07,-0.05,0.0
809,9.03,-0.84,2.25,-0.44,0.16,0.04,0.0
810,10.93,-1.6,1.87,-0.73,0.08,-0.19,0.0
811,11.02,-0.73,1.0,-0.74,-0.07,0.0,0.0
812,9.14,-0.2,1.79,-0.8,0.16,-0.08,0.0
813,10.76,-0.23,1.82,-0.29,0.12,0.07,0.0
814,9.1,-0.73,1.79,-0.46,0.2,0.07,0.0
815,10.76,-1.14,1.78,-0.84,0.15,-0.21,0.0
816,9.13,-0.16,1.81,-0.83,0.03,-0.11,0.0
817,10.93,0.27,1.76,-0.29,0.15,0.08,0.0
818,8.94,-0.8,1.84,-0.37,0.3,0.13,0.0
819,10.83,-0.53,1.08,-0.91,-0.08,-0.05,0.0
820,9.26,-0.22,1.96,-0.88,0.02,-0.12,0.0
821,10.95,0.07,1.58,-0.28,0.03,0.11,0.0
822,11.67,-0.9,0.95,-0.3,-0.08,0.01,0.0
823,9.53,-0.97,1.87,-0.36,0.3,0.16,0.0
824,10.19,-1.73,2.4,-0.72,0.04,-0.2,0.0
825,11.04,-0.41,1.53,-0.87,-0.21,-0.12,0.0
826,8.9,-0.34,2.49,-0.73,0.13,-0.12,0.0
827,10.97,0.28,2.31,-0.24,0.18,0.12,0.0
828,9.71,-0.77,2.41,-0.36,0.15,0.06,0.0
829,11.14,-1.64,2.54,-0.78,0.03,-0.15,0.0
830,9.4,0.15,1.46,-1.04,-0.1,-0.21,0.0
831,10.89,-0.03,1.81,-0.34,0.08,0.15,0.0
832,9.18,-0.44,2.24,-0.52,0.18,0.1,0.0
833,10.49,-0.71,1.38,-1.03,-0.12,-0.07,0.0
834,9.3,-0.48,1.68,-0.95,-0.02,-0.09,0.0
835,10.55,0.16,2.56,-0.2,0.13,0.12,0.0
836,9.4,-0.68,2.26,-0.51,0.17,0.04,0.0
837,9.23,-0.09,2.31,-0.74,0.13,-0.09,0.0
838,10.53,0.28,2.62,-0.31,0.11,0.13,0.0
839,9.15,-0.61,2.26,-0.59,0.21,0.05,0.0
840,10.83,-1.41,2.51,-0.88,0.15,-0.23,0.0
841,10.85,-0.69,1.24,-1.0,-0.17,-0.08,0.0
842,9.37,-0.48,2.24,-0.65,0.05,-0.19,0.0
843,10.06,0.43,2.25,0.02,-0.03,0.23,0.0
844,9.36,-0.55,2.15,-0.36,0.2,0.07,0.0
845,10.48,-1.22,2.13,-0.79,0.2,-0.24,0.0
846,9.29,-0.3,1.99,-0.81,0.11,-0.07,0.0
847,10.47,0.49,2.19,-0.32,0.23,0.26,0.0
848,10.98,0.35,2.16,-0.46,0.19,0.24,0.0
849,9.27,-0.66,1.85,-0.58,0.18,0.0,0.0
850,10.05,-1.52,2.02,-0.79,-0.0,-0.2,0.0
851,10.98,-0.34,1.42,-1.01,-0.18,-0.01,0.0
852,9.15,-0.15,2.17,-0.81,-0.01,-0.09,0.0
853,10.99,-0.2,2.33,-0.32,0.08,0.2,0.0
854,10.9,-1.14,1.08,-0.29,0.02,-0.14,0.0
855,9.22,-0.97,2.22,-0.24,0.23,0.02,0.0
856,9.9,-0.99,2.72,-0.62,-0.0,-0.19,0.0
857,11.02,-0.63,1.02,-1.26,-0.11,-0.08,0.0
858,9.63,-0.46,2.77,-1.04,0.18,-0.11,0.0
859,10.7,0.05,2.89,-0.26,-0.04,0.16,0.0
860,11.06,-0.95,1.26,-0.32,-0.15,-0.08,0.0
861,9.1,-1.28,1.77,-0.31,0.19,0.05,0.0
862,10.71,-1.39,2.98,-0.7,0.04,-0.16,0.0
863,9.37,-0.23,2.32,-1.19,0.03,-0.1,0.0
864,10.74,0.12,3.0,-0.34,0.09,0.09,0.0
865,8.98,-0.98,2.15,-0.17,0.11,0.04,0.0
866,10.79,-0.38,2.76,-0.67,-0.08,-0.18,0.0
867,11.11,-0.39,1.14,-1.19,-0.12,-0.08,0.0
868,9.55,0.1,2.66,-0.97,0.27,-0.17,0.0
869,10.75,0.49,2.97,-0.33,0.15,0.19,0.0
870,11.3,-0.42,1.06,-0.38,-0.22,-0.04,0.0
871,9.55,-0.93,2.44,-0.49,0.18,0.1,0.0
872,9.72,-1.34,2.41,-0.72,0.1,-0.26,0.0
873,9.32,0.09,2.42,-0.89,0.07,-0.06,0.0
874,10.69,0.28,2.76,-0.33,0.11,0.24,0.0
875,9.18,-0.97,2.4,-0.36,0.12,0.06,0.0
876,10.44,-1.6,2.4,-0.74,0.03,-0.23,0.0
877,9.97,-0.1,1.11,-0.93,-0.08,-0.04,0.0
878,9.58,0.45,1.96,-0.8,-0.04,-0.07,0.0
879,11.42,0.38,2.24,-0.46,0.11,0.27,0.0
880,9.08,-0.74,2.43,-0.52,0.22,0.05,0.0
881,9.21,0.29,2.68,-0.79,0.06,-0.05,0.0
882,11.07,0.34,2.55,-0.37,-0.05,0.24,0.0
883,9.06,-0.75,2.2,-0.45,0.25,0.09,0.0
884,10.53,-1.71,2.82,-0.75,0.1,-0.2,0.0
885,10.63,-0.84,1.55,-0.92,-0.1,-0.1,0.0
886,9.1,-0.04,2.08,-0.78,0.1,-0.13,0.0
887,9.56,0.19,2.64,-0.19,0.03,0.1,0.0
888,10.43,0.7,2.69,-0.42,0.19,0.16,0.0
889,9.17,-0.55,2.35,-0.46,0.18,0.11,0.0
890,10.51,-1.32,2.92,-0.8,0.16,-0.24,0.0
891,9.37,0.06,2.03,-0.92,0.03,-0.06,0.0
892,10.59,0.18,2.66,-0.43,0.12,0.22,0.0
893,9.22,-0.5,2.41,-0.37,0.15,0.04,0.0
894,10.66,-1.41,2.61,-0.87,0.17,-0.27,0.0
895,9.56,0.04,2.51,-0.87,0.14,-0.05,0.0
896,11.09,0.65,2.72,-0.34,0.05,0.17,0.0
897,9.08,-0.79,2.1,-0.34,0.11,0.1,0.0
898,10.4,-1.31,2.56,-0.8,0.12,-0.28,0.0
899,9.43,-0.04,2.6,-0.89,-0.0,-0.08,0.0
900,10.65,0.07,2.62,-0.28,0.04,0.24,0.0
901,9.34,-1.07,2.01,-0.26,0.19,0.03,0.0
902,9.79,-1.75,2.36,-0.6,0.1,-0.21,0.0
903,10.65,-0.46,0.74,-1.31,-0.39,-0.1,0.0
904,10.36,0.68,1.76,-0.15,0.09,0.29,0.0
905,9.89,-0.79,1.57,-0.52,0.11,0.09,0.0
906,10.58,-1.7,2.26,-0.89,0.24,-0.33,0.0
907,10.94,-0.87,0.63,-1.12,-0.2,-0.1,0.0
908,9.55,-0.55,1.95,-0.73,-0.02,-0.11,0.0
909,10.61,0.31,1.92,-0.16,0.12,0.17,0.0
910,9.27,-0.71,1.97,-0.32,0.13,0.12,0.0
911,10.97,-1.14,2.01,-0.88,0.04,-0.29,0.0
912,9.33,-0.04,1.79,-0.91,0.12,-0.13,0.0
913,10.82,0.28,1.85,-0.29,0.15,0.14,0.0
914,11.31,-0.4,0.63,-0.43,-0.15,-0.09,0.0
915,9.25,-0.78,1.98,-0.57,0.19,0.08,0.0
916,10.93,-1.06,2.68,-0.79,-0.08,-0.26,0.0
917,10.88,-0.2,0.99,-0.94,-0.08,-0.07,0.0
918,9.64,0.11,2.1,-0.75,0.05,-0.09,0.0
919,11.06,0.34,2.47,-0.47,0.04,0.1,0.0
920,9.26,-0.65,1.77,-0.5,0.15,0.15,0.0
921,10.94,-1.68,2.29,-0.76,0.09,-0.24,0.0
922,9.5,-0.33,2.11,-0.88,0.08,-0.14,0.0
923,10.75,0.15,2.09,-0.25,0.11,0.1,0.0
924,11.57,-0.45,0.83,-0.41,-0.19,-0.08,0.0
925,9.43,-0.69,2.09,-0.39,0.13,0.1,0.0
926,10.27,-0.49,2.27,-0.84,0.04,-0.08,0.0
927,11.22,0.15,2.44,-0.34,0.01,0.19,0.0
928,11.31,-0.54,0.89,-0.38,-0.18,-0.12,0.0
929,9.37,-0.88,1.97,-0.36,0.07,0.05,0.0
930,11.07,-1.28,2.26,-0.79,-0.02,-0.27,0.0
931,10.0,-0.1,2.27,-0.93,0.12,-0.12,0.0
932,10.82,0.09,2.28,-0.21,0.07,0.14,0.0
933,11.18,-0.21,1.7,-0.4,-0.01,-0.03,0.0
934,9.64,-0.35,2.55,-0.55,0.14,0.06,0.0
935,9.32,-0.04,2.75,-0.8,0.1,-0.11,0.0
936,10.62,0.07,3.11,-0.31,0.03,0.23,0.0
937,11.42,-0.51,1.81,-0.59,-0.06,-0.06,0.0
938,9.47,-0.7,2.82,-0.58,0.13,0.06,0.0
939,9.81,-0.37,1.5,-0.81,0.02,0.02,0.0
940,10.65,0.02,2.96,-0.36,0.13,0.18,0.0
941,11.29,-0.63,2.03,-0.5,0.01,-0.02,0.0
942,9.37,-0.68,2.61,-0.54,0.14,0.02,0.0
943,10.62,-0.6,1.43,-0.67,0.05,-0.01,0.0
944,9.28,0.04,1.7,-0.7,0.16,0.0,0.0
945,11.01,0.11,2.61,-0.28,0.01,0.14,0.0
946,11.51,-0.28,1.27,-0.45,-0.18,0.1,0.0
947,8.91,-0.77,2.17,-0.54,0.17,0.03,0.0
948,10.38,-0.74,1.76,-0.93,-0.15,-0.02,0.0
949,9.26,-0.28,2.31,-0.79,0.04,-0.07,0.0
950,10.92,0.57,2.67,-0.17,0.19,0.26,0.0
951,8.8,-1.1,2.33,-0.37,0.19,0.06,0.0
952,10.41,-1.73,3.06,-0.74,0.14,-0.24,0.0
953,9.24,-0.21,2.3,-0.75,0.06,-0.07,0.0
954,10.69,-0.02,2.67,-0.25,0.11,0.13,0.0
955,9.23,-0.76,2.06,-0.44,0.27,-0.01,0.0
956,10.63,-1.04,2.29,-0.83,0.18,-0.27,0.0
957,9.18,0.11,2.08,-0.69,0.06,-0.11,0.0
958,10.75,0.28,2.42,-0.3,0.01,0.14,0.0
959,8.98,-1.09,2.39,-0.5,0.32,0.07,0.0
960,10.9,-1.05,2.35,-0.82,-0.09,-0.32,0.0
961,11.26,-0.56,1.58,-0.54,-0.02,-0.14,0.0
962,9.0,-0.02,2.14,-0.73,0.04,-0.08,0.0
963,10.54,0.0,2.46,-0.27,0.04,0.14,0.0
964,9.04,-0.72,2.06,-0.57,0.2,0.04,0.0
965,11.03,-1.31,2.71,-0.76,0.1,-0.21,0.0
966,11.16,-0.79,1.55,-0.82,-0.17,-0.02,0.0
967,9.24,-0.04,2.37,-0.51,0.08,-0.09,0.0
968,10.72,-0.05,2.36,-0.15,-0.01,0.16,0.0
969,9.33,-0.76,2.26,-0.69,0.3,0.03,0.0
970,10.71,-0.6,1.82,-0.75,-0.14,-0.05,0.0
971,9.4,-0.11,2.21,-0.71,0.07,-0.1,0.0
972,10.71,0.06,2.56,-0.34,-0.05,0.12,0.0
973,8.88,-0.75,2.46,-0.49,0.18,0.06,0.0
974,10.67,-0.95,2.72,-0.73,-0.04,-0.23,0.0
975,11.31,-0.41,1.45,-0.54,-0.09,-0.12,0.0
976,10.93,-0.73,1.65,-0.82,-0.21,-0.06,0.0
977,9.09,-0.23,2.45,-0.58,0.07,-0.04,0.0
978,10.48,0.49,2.78,-0.26,0.15,0.2,0.0
979,9.37,-0.94,2.41,-0.52,0.32,0.05,0.0
980,10.91,-0.86,1.8,-0.89,-0.25,-0.06,0.0
981,9.08,-0.23,2.52,-0.56,0.07,-0.06,0.0
982,10.5,0.08,2.87,-0.18,0.05,0.18,0.0
983,11.22,-0.37,1.56,-0.72,0.04,-0.07,0.0
984,9.05,-1.13,2.38,-0.65,0.21,0.03,0.0
985,10.21,-0.48,3.04,-0.78,-0.02,-0.28,0.0
986,11.26,-0.68,1.96,-0.64,-0.1,-0.2,0.0
987,9.23,-0.27,2.21,-0.77,-0.01,-0.12,0.0
988,10.28,0.05,3.28,-0.3,0.07,0.19,0.0
989,10.68,-0.23,2.73,-0.4,-0.19,0.13,0.0
990,9.3,-0.71,2.1,-0.62,0.24,0.02,0.0
991,10.38,-1.0,2.89,-0.79,0.13,-0.24,0.0
992,9.18,-0.05,2.5,-0.77,0.09,-0.09,0.0
993,10.53,-0.36,3.09,-0.28,0.03,0.22,0.0
994,10.82,-0.3,2.85,-0.36,-0.08,0.2,0.0
995,8.78,-0.83,2.3,-0.57,0.19,-0.0,0.0
996,10.69,-1.16,3.0,-0.78,-0.0,-0.25,0.0
997,10.94,-0.43,1.66,-0.85,-0.22,-0.06,0.0
998,9.21,0.06,2.41,-0.69,-0.02,-0.12,0.0
999,10.83,0.1,2.6,-0.26,0.01,0.12,0.0
1000,9.24,-0.89,2.13,-0.56,0.22,0.06,0.0
1001,10.47,-1.11,2.23,-0.73,0.09,-0.2,0.0
1002,10.86,-0.7,1.67,-0.87,-0.21,-0.1,0.0
1003,9.28,-0.32,2.33,-0.65,0.03,-0.12,0.0
1004,10.6,0.39,2.47,-0.17,0.11,0.17,0.0
1005,11.23,-0.73,1.25,-0.66,-0.1,-0.1,0.0
1006,9.25,-0.8,2.15,-0.56,0.12,0.06,0.0
1007,10.44,-0.99,2.66,-0.75,0.05,-0.2,0.0
1008,10.37,-0.75,1.55,-0.83,-0.06,-0.03,0.0
1009,9.3,-0.04,1.47,-0.75,0.03,-0.12,0.0
1010,10.12,0.5,3.01,-0.42,0.08,0.09,0.0
1011,10.99,0.44,2.12,-0.53,-0.16,-0.08,0.0
1012,11.31,-0.56,1.38,-0.72,0.04,0.02,0.0
1013,9.51,-0.84,2.0,-0.54,0.21,0.06,0.0
1014,10.55,-0.74,2.51,-0.74,0.0,-0.27,0.0
1015,11.71,-0.53,1.3,-0.55,-0.13,-0.19,0.0
1016,10.42,-0.77,1.56,-0.8,-0.12,-0.04,0.0
1017,9.35,-0.17,1.99,-0.58,0.03,-0.1,0.0
1018,10.48,-0.05,2.37,-0.16,0.05,0.18,0.0
1019,11.18,-0.51,1.07,-0.65,-0.03,-0.07,0.0
1020,9.08,-0.91,2.19,-0.54,0.16,0.03,0.0
1021,10.49,-0.65,2.79,-0.83,0.13,-0.25,0.0
1022,10.9,-0.33,1.73,-0.9,-0.13,-0.07,0.0
1023,9.28,0.19,2.81,-0.59,0.07,-0.12,0.0
1024,10.47,0.73,3.48,-0.39,-0.02,0.17,0.0
1025,10.62,-0.83,2.74,-0.79,0.03,-0.21,0.0
1026,10.7,-0.78,1.87,-1.09,-0.19,-0.12,0.0
1027,10.75,0.36,2.48,-0.29,0.05,0.21,0.0
1028,9.45,-0.51,2.36,-0.63,0.26,0.04,0.0
1029,10.65,-0.78,3.32,-0.81,0.02,-0.27,0.0
1030,9.19,-0.07,2.1,-0.68,0.01,-0.08,0.0
1031,10.78,0.38,2.23,-0.27,-0.06,0.2,0.0
1032,10.63,0.21,2.33,-0.6,-0.1,0.14,0.0
1033,8.99,-0.76,1.75,-0.52,0.25,0.04,0.0
1034,10.81,-1.01,2.14,-0.82,0.11,-0.27,0.0
1035,9.48,0.3,2.44,-0.78,0.1,-0.11,0.0
1036,10.65,0.09,2.23,-0.28,-0.05,0.24,0.0
1037,8.92,-0.75,1.88,-0.56,0.3,0.06,0.0
1038,11.25,-0.48,1.18,-1.13,-0.19,-0.09,0.0
1039,9.19,-0.62,2.22,-0.85,0.07,-0.05,0.0
1040,10.73,0.13,2.51,-0.39,0.0,0.2,0.0
1041,9.34,-0.94,1.3,-0.24,-0.03,-0.04,0.0
1042,10.51,-1.41,1.55,-0.94,0.19,-0.38,0.0
1043,10.72,-0.05,1.39,-1.14,-0.11,-0.01,0.0
1044,9.75,-0.32,2.25,-0.73,0.0,-0.02,0.0
1045,10.71,0.86,1.89,-0.13,-0.01,0.29,0.0
1046,9.61,-0.78,1.46,-0.46,0.05,0.0,0.0
1047,10.64,-1.45,1.33,-0.76,0.29,-0.33,0.0
1048,10.02,-0.38,1.67,-0.59,-0.03,-0.02,0.0
1049,10.34,0.82,1.81,-0.29,0.43,0.28,0.0
1050,9.06,-1.15,1.76,-0.48,0.09,-0.02,0.0
1051,10.62,-1.73,1.37,-0.83,0.23,-0.3,0.0
1052,10.65,-0.49,0.22,-0.89,-0.2,-0.1,0.0
1053,9.38,-0.54,1.77,-0.54,-0.03,-0.1,0.0
1054,10.25,0.48,1.63,0.01,0.23,0.14,0.0
1055,9.11,-0.62,1.77,-0.63,0.09,0.03,0.0
1056,9.88,-0.62,2.16,-0.96,0.05,-0.06,0.0
1057,10.51,0.13,1.88,-0.15,0.21,0.23,0.0
1058,9.16,-0.72,1.66,-0.5,0.11,-0.01,0.0
1059,10.09,-1.36,1.55,-0.77,0.26,-0.24,0.0
1060,10.9,-0.96,2.51,-0.72,0.2,-0.2,0.0
1061,10.74,-0.16,0.61,-1.04,-0.12,-0.04,0.0
1062,9.32,-0.71,2.06,-0.68,-0.01,-0.12,0.0
1063,10.99,0.19,1.93,-0.15,0.08,0.24,0.0
1064,10.05,-0.73,1.73,-0.7,0.26,-0.09,0.0
1065,9.93,-1.49,1.93,-0.79,0.07,-0.32,0.0
1066,11.26,0.36,1.3,-1.14,-0.26,-0.03,0.0
1067,10.83,1.13,2.07,-0.18,0.25,0.2,0.0
1068,9.16,-0.17,2.17,-0.6,0.27,-0.06,0.0
1069,10.83,0.15,1.06,-1.09,-0.11,-0.04,0.0
1070,8.99,-0.2,2.87,-0.83,0.19,-0.07,0.0
1071,10.68,0.28,2.62,-0.26,0.02,0.32,0.0
1072,9.12,-1.03,1.77,-0.52,0.13,0.07,0.0
1073,9.28,-1.32,2.01,-0.77,0.09,-0.29,0.0
1074,11.07,-0.11,0.66,-1.09,-0.15,-0.05,0.0
1075,10.0,0.13,2.09,-0.9,0.17,-0.16,0.0
1076,10.71,0.2,2.14,-0.24,0.01,0.24,0.0
1077,11.51,-0.66,0.92,-0.52,-0.04,-0.08,0.0
1078,9.98,-0.55,1.81,-0.44,0.2,-0.0,0.0
1079,10.47,-1.19,2.58,-0.81,0.07,-0.23,0.0
1080,10.9,-0.16,1.3,-1.03,-0.11,-0.06,0.0
1081,9.17,0.17,2.43,-0.8,0.01,-0.16,0.0
1082,10.58,-0.05,2.43,-0.22,0.05,0.25,0.0
1083,10.99,-1.25,2.02,-0.93,0.1,-0.22,0.0
1084,10.44,-0.25,2.33,-0.68,-0.15,-0.1,0.0
1085,11.0,0.62,2.02,-0.18,0.09,0.34,0.0
1086,9.98,-0.59,1.78,-0.38,0.38,0.12,0.0
1087,11.11,-0.19,1.05,-0.84,-0.15,-0.05,0.0
1088,9.08,-0.14,2.36,-0.67,0.06,-0.09,0.0
1089,11.07,-0.19,1.72,-0.19,0.01,0.15,0.0
1090,9.16,-1.01,1.75,-0.6,0.22,0.02,0.0
1091,10.07,-1.44,1.81,-0.87,0.08,-0.31,0.0
1092,10.28,-0.66,2.59,-0.89,-0.0,-0.06,0.0
1093,10.92,0.36,2.42,-0.24,0.19,0.22,0.0
1094,11.27,-0.74,1.54,-0.27,-0.11,-0.08,0.0
1095,10.12,-1.68,2.79,-0.91,-0.07,-0.19,0.0
1096,9.75,-0.23,3.4,-0.93,0.1,-0.09,0.0
1097,10.88,0.54,3.52,-0.33,0.15,0.09,0.0
1098,9.09,-0.05,3.47,-0.44,0.22,0.11,0.0
1099,10.37,-1.12,2.97,-0.89,0.06,-0.16,0.0
1100,10.81,0.53,3.19,-0.34,0.25,0.09,0.0
1101,9.84,-0.56,2.37,-0.14,-0.31,-0.04,0.0
1102,8.65,-0.08,3.42,-0.27,0.02,0.16,0.0
1103,9.7,-1.13,2.77,-0.92,-0.05,-0.12,0.0
1104,9.52,0.07,3.71,-0.83,-0.03,-0.02,0.0
1105,10.83,0.42,3.56,-0.05,0.24,0.16,0.0
1106,8.85,-0.51,2.98,-0.58,0.21,0.14,0.0
1107,9.29,-0.11,3.61,-0.62,0.14,-0.01,0.0
1108,10.47,0.09,3.5,-0.12,0.48,0.31,0.0
1109,10.3,0.08,2.84,-0.84,-0.12,-0.13,0.0
1110,9.24,-0.25,3.55,-0.58,0.12,-0.05,0.0
1111,10.21,0.87,3.37,0.04,0.47,0.36,0.0
1112,11.08,1.0,2.55,-0.09,0.48,0.31,0.0
1113,9.28,-1.09,3.03,-0.78,0.08,0.04,0.0
1114,8.97,-0.06,3.88,-0.47,0.04,-0.06,0.0
1115,10.57,0.98,4.11,-0.3,0.34,0.28,0.0
1116,9.05,-0.31,3.21,-0.37,0.06,0.09,0.0
1117,9.43,-1.04,3.4,-0.78,-0.02,-0.05,0.0
1118,9.56,-0.45,1.92,-0.88,-0.31,-0.02,0.0
1119,9.08,-0.37,2.92,-0.43,-0.2,0.09,0.0
1120,10.95,0.37,1.57,-0.44,-0.27,0.44,0.0
1121,9.29,-1.25,1.51,-0.43,0.11,0.0,0.0
1122,10.18,-2.07,2.51,-0.82,0.02,-0.37,0.0
1123,9.33,-0.44,2.08,-0.38,-0.04,-0.08,0.0
1124,10.66,0.21,1.57,-0.05,0.09,0.25,0.0
1125,9.25,-0.74,1.68,-0.27,-0.04,-0.03,0.0
1126,9.67,-0.85,0.54,-0.85,0.28,-0.34,0.0
1127,9.5,0.35,1.39,-0.92,-0.06,-0.06,0.0
1128,10.82,1.16,2.05,-0.26,0.13,0.27,0.0
1129,11.04,-0.61,0.46,-0.45,0.05,-0.08,0.0
1130,9.35,-0.43,1.9,-0.58,0.25,0.08,0.0
1131,10.82,-1.03,1.7,-1.08,0.15,-0.31,0.0
1132,9.23,-0.48,2.05,-1.02,-0.04,-0.02,0.0
1133,10.6,0.29,2.02,0.06,0.04,0.24,0.0
1134,9.31,-0.84,1.66,-0.49,0.29,0.03,0.0
1135,11.05,-1.03,2.36,-0.69,0.21,-0.32,0.0
1136,9.63,0.15,1.96,-0.79,0.05,-0.09,0.0
1137,10.85,0.46,1.92,-0.29,0.05,0.26,0.0
1138,9.36,-0.65,1.58,-0.54,0.15,0.07,0.0
1139,9.68,-0.45,2.3,-0.89,-0.06,-0.05,0.0
1140,10.58,0.65,2.23,-0.14,0.18,0.25,0.0
1141,9.3,-0.44,2.38,-0.36,0.18,0.07,0.0
1142,9.63,-1.49,2.49,-1.05,0.17,-0.29,0.0
1143,9.67,-0.17,2.94,-1.19,0.03,0.0,0.0
1144,10.34,-0.23,3.45,-0.42,0.23,0.29,0.0
1145,9.43,-0.85,2.53,-0.43,0.11,0.03,0.0
1146,9.48,-1.85,2.82,-0.68,0.19,-0.24,0.0
1147,10.89,-0.4,1.56,-0.93,-0.27,-0.11,0.0
1148,9.27,-0.51,3.02,-0.69,-0.02,-0.04,0.0
1149,11.23,0.03,2.82,-0.33,0.18,0.17,0.0
1150,9.42,-0.95,2.25,-0.46,0.06,-0.02,0.0
1151,10.09,-1.47,2.2,-0.82,0.02,-0.33,0.0
1152,10.58,0.35,1.46,-1.03,-0.13,-0.04,0.0
1153,9.7,-0.08,2.68,-0.78,-0.02,-0.07,0.0
1154,10.69,0.17,2.39,-0.24,0.16,0.17,0.0
1155,10.77,-0.63,1.61,-0.48,-0.02,-0.03,0.0
1156,9.29,-1.13,2.21,-0.58,0.11,0.04,0.0
1157,10.58,-1.61,2.57,-0.67,0.08,-0.32,0.0
1158,11.03,-0.28,1.88,-0.91,-0.24,-0.05,0.0
1159,9.92,-0.66,2.66,-0.6,0.0,-0.08,0.0
1160,9.38,-1.36,1.92,-0.58,0.15,0.05,0.0
1161,9.99,-1.99,2.45,-0.82,0.17,-0.26,0.0
1162,10.5,-0.97,1.22,-0.86,-0.06,-0.07,0.0
1163,9.3,0.09,2.64,-0.68,0.05,-0.07,0.0
1164,10.71,0.23,2.64,-0.24,0.09,0.22,0.0
1165,10.93,-1.0,1.3,-0.38,-0.26,-0.01,0.0
1166,9.04,-0.9,2.24,-0.56,0.09,0.05,0.0
1167,10.12,-1.68,2.17,-0.91,0.07,-0.25,0.0
1168,9.59,-0.15,2.83,-0.78,0.02,-0.07,0.0
1169,11.42,0.15,2.31,-0.22,-0.09,0.22,0.0
1170,9.46,-0.8,2.35,-0.43,0.18,-0.03,0.0
1171,9.96,-1.66,2.19,-0.96,0.08,-0.21,0.0
1172,9.73,0.2,2.46,-0.7,0.03,-0.15,0.0
1173,10.74,0.42,2.52,-0.35,0.1,0.24,0.0
1174,11.7,-0.34,1.23,-0.37,-0.37,-0.07,0.0
1175,9.6,-0.43,2.1,-0.52,0.23,0.02,0.0
1176,9.83,0.04,2.31,-0.82,0.03,-0.09,0.0
1177,11.03,0.67,2.18,-0.16,0.06,0.28,0.0
1178,11.34,-0.47,1.27,-0.39,-0.17,-0.09,0.0
1179,9.53,-0.67,2.11,-0.48,0.26,0.06,0.0
1180,9.51,-0.02,2.67,-0.86,-0.01,-0.08,0.0
1181,11.12,0.24,2.82,-0.24,-0.02,0.19,0.0
1182,9.21,-0.8,2.19,-0.54,0.21,0.05,0.0
1183,10.54,-1.36,3.07,-0.76,0.04,-0.18,0.0
1184,11.17,-0.51,1.8,-0.84,-0.25,-0.13,0.0
1185,9.34,-0.21,2.53,-0.67,0.04,-0.06,0.0
1186,11.17,0.22,2.71,-0.16,-0.04,0.25,0.0
1187,9.47,-0.67,2.27,-0.52,0.19,0.06,0.0
1188,10.27,-1.51,1.9,-0.98,0.11,-0.18,0.0
1189,11.11,0.07,1.47,-1.32,-0.2,-0.01,0.0
1190,9.31,-0.28,2.38,-0.93,-0.03,-0.11,0.0
1191,10.87,0.28,2.48,-0.11,0.02,0.26,0.0
1192,9.27,-0.84,1.94,-0.51,0.3,0.0,0.0
1193,10.92,0.01,1.53,-0.84,-0.27,-0.08,0.0
1194,9.16,-0.23,2.42,-0.67,-0.02,-0.12,0.0
1195,11.04,0.08,2.13,-0.27,0.03,0.1,0.0
1196,11.34,-0.62,0.91,-0.45,-0.17,-0.07,0.0
1197,9.54,-0.93,1.77,-0.47,0.2,0.04,0.0
1198,10.53,-0.92,2.16,-0.73,0.21,-0.31,0.0
1199,9.38,0.05,2.11,-0.75,-0.05,-0.07,0.0
1200,10.7,0.17,1.93,-0.27,0.05,0.16,0.0
1201,11.64,-0.45,0.97,-0.39,-0.19,0.01,0.0
1202,9.07,-1.07,1.53,-0.45,0.12,-0.02,0.0
1203,10.64,-1.33,2.13,-0.89,0.21,-0.33,0.0
1204,10.41,-0.18,0.78,-1.04,-0.04,0.07,0.0
1205,9.27,-0.25,2.07,-0.87,-0.03,-0.06,0.0
1206,10.82,0.36,2.21,-0.32,-0.02,0.1,0.0
1207,9.05,-0.97,1.51,-0.54,0.25,0.0,0.0
1208,10.67,-1.13,2.56,-0.87,0.11,-0.24,0.0
1209,11.14,-0.34,0.87,-0.69,0.02,0.02,0.0
1210,9.05,-0.12,2.07,-0.63,0.12,-0.05,0.0
1211,10.6,0.01,2.03,-0.29,0.17,0.15,0.0
1212,10.99,0.09,2.28,-0.68,0.03,0.15,0.0
1213,10.96,-0.68,1.04,-0.47,-0.08,0.03,0.0
1214,9.21,-1.24,1.85,-0.5,0.07,0.06,0.0
1215,10.95,-1.26,3.43,-0.82,0.18,-0.26,0.0
1216,11.13,-0.3,1.43,-0.84,-0.14,-0.03,0.0
1217,9.41,-0.16,2.97,-0.65,0.06,-0.1,0.0
1218,10.54,-0.33,2.64,-0.33,0.01,0.16,0.0
1219,11.08,-0.57,1.47,-0.44,-0.12,-0.04,0.0
1220,9.14,-1.03,2.21,-0.63,0.22,-0.03,0.0
1221,11.02,-1.2,3.1,-0.73,-0.07,-0.26,0.0
1222,10.77,-0.04,1.94,-0.78,-0.06,-0.0,0.0
1223,9.15,-0.23,2.47,-0.48,0.0,-0.07,0.0
1224,10.52,0.49,2.39,-0.25,0.05,0.12,0.0
1225,11.21,-0.46,1.22,-0.64,-0.07,-0.04,0.0
1226,9.34,-1.07,2.15,-0.71,0.23,0.02,0.0
1227,10.38,-0.87,3.42,-0.7,0.06,-0.3,0.0
1228,11.11,0.01,1.33,-0.77,-0.1,0.01,0.0
1229,9.22,0.09,2.37,-0.57,0.03,-0.11,0.0
1230,10.59,0.65,2.44,-0.37,-0.0,0.17,0.0
1231,9.23,-0.84,1.85,-0.54,0.23,0.08,0.0
1232,10.64,-1.05,2.34,-0.77,0.05,-0.34,0.0
1233,10.65,-0.18,0.79,-0.65,0.05,0.08,0.0
1234,9.14,-0.0,1.72,-0.72,0.1,0.05,0.0
1235,10.47,0.4,2.25,-0.35,0.18,0.11,0.0
1236,11.26,-0.13,1.48,-0.8,-0.12,0.04,0.0
1237,11.58,-0.48,1.12,-0.48,-0.14,-0.0,0.0
1238,9.16,-0.95,1.6,-0.52,0.19,0.02,0.0
1239,10.59,-1.37,2.32,-0.74,-0.01,-0.22,0.0
1240,10.92,-0.48,1.55,-0.78,-0.09,-0.03,0.0
1241,9.75,-0.35,2.2,-0.72,-0.01,-0.07,0.0
1242,10.67,-0.16,2.06,-0.11,-0.03,0.15,0.0
1243,11.55,-0.25,1.13,-0.48,-0.19,-0.01,0.0
1244,9.25,-0.99,1.87,-0.51,0.12,0.03,0.0
1245,10.63,-1.31,2.68,-0.95,0.18,-0.35,0.0
1246,10.81,0.23,1.85,-0.9,0.03,0.0,0.0
1247,11.11,0.4,2.3,-0.29,-0.1,0.18,0.0
1248,9.28,-0.66,1.71,-0.57,0.13,0.03,0.0
1249,10.99,-1.11,2.76,-0.85,0.1,-0.19,0.0
1250,11.1,0.08,0.91,-0.79,-0.21,-0.09,0.0
1251,9.19,0.05,2.5,-0.55,-0.04,-0.12,0.0
1252,10.72,0.16,1.94,-0.11,-0.08,0.15,0.0
1253,11.27,-0.23,0.94,-0.43,-0.12,-0.04,0.0
1254,9.69,-0.85,1.89,-0.52,0.16,0.02,0.0
1255,10.65,-1.29,3.18,-0.77,0.02,-0.18,0.0
1256,10.88,0.05,1.03,-0.89,-0.07,-0.02,0.0
1257,9.11,0.24,2.4,-0.8,-0.02,-0.09,0.0
1258,10.73,-0.13,2.14,-0.31,-0.01,0.21,0.0
1259,11.84,-0.29,1.29,-0.5,-0.29,0.01,0.0
1260,10.95,-1.45,2.21,-0.68,0.07,-0.21,0.0
1261,10.97,0.05,1.27,-0.81,-0.17,0.02,0.0
1262,9.35,-0.02,2.25,-0.63,0.08,-0.08,0.0
1263,10.81,0.19,2.15,-0.22,0.07,0.12,0.0
1264,11.44,-0.44,0.99,-0.57,-0.14,-0.07,0.0
1265,9.21,-0.84,1.91,-0.67,0.19,0.11,0.0
1266,9.19,-0.01,2.41,-0.58,0.02,-0.12,0.0
1267,10.53,0.16,2.78,-0.26,0.0,0.11,0.0
1268,11.35,-0.27,1.39,-0.71,-0.15,0.09,0.0
1269,8.99,-1.11,1.98,-0.62,0.14,0.05,0.0
1270,10.46,-0.83,2.41,-0.79,0.0,-0.33,0.0
1271,9.79,-0.41,2.11,-0.37,-0.05,-0.04,0.0
1272,10.77,0.05,2.05,-0.41,0.07,0.07,0.0
1273,11.23,-0.51,1.14,-0.4,-0.17,0.01,0.0
1274,9.27,-1.0,1.98,-0.48,0.08,0.05,0.0
1275,10.72,-1.29,2.85,-0.73,0.23,-0.31,0.0
1276,11.38,-0.17,1.04,-0.94,-0.11,0.02,0.0
1277,9.17,0.11,2.56,-0.69,0.09,-0.03,0.0
1278,10.72,0.01,2.01,-0.31,0.0,0.16,0.0
1279,10.99,-0.54,1.25,-0.39,-0.14,0.02,0.0
1280,9.26,-0.93,2.12,-0.39,0.17,0.04,0.0
1281,10.79,-1.33,2.93,-0.76,-0.02,-0.19,0.0
1282,10.58,-0.41,0.92,-0.77,0.03,0.05,0.0
1283,9.07,-0.27,2.21,-0.8,0.06,-0.04,0.0
1284,10.8,-0.19,2.35,-0.23,0.02,0.12,0.0
1285,11.14,-0.51,1.09,-0.59,-0.2,-0.01,0.0
1286,9.24,-1.12,1.66,-0.62,0.18,0.02,0.0
1287,10.17,-0.04,1.5,-0.72,0.09,0.01,0.0
1288,9.0,-0.05,2.09,-0.67,0.06,-0.07,0.0
1289,10.5,-0.2,2.11,-0.19,0.01,0.12,0.0
1290,11.02,-0.19,2.08,-0.55,-0.02,0.14,0.0
1291,9.13,-0.92,1.9,-0.55,0.14,-0.04,0.0
1292,10.65,-1.09,2.8,-0.76,0.2,-0.22,0.0
1293,10.88,-0.08,1.23,-0.82,0.08,0.05,0.0
1294,9.24,0.11,2.61,-0.66,0.11,-0.11,0.0
1295,10.94,0.4,2.51,-0.47,0.0,0.08,0.0
1296,11.1,-0.61,1.39,-0.49,-0.15,0.06,0.0
1297,9.14,-1.03,2.27,-0.5,0.19,0.06,0.0
1298,10.41,-1.01,2.45,-0.65,0.09,-0.26,0.0
1299,9.65,-0.28,2.53,-0.77,-0.01,-0.07,0.0
1300,10.78,0.18,2.16,-0.34,-0.01,0.08,0.0
1301,11.71,-0.4,1.07,-0.45,-0.29,0.07,0.0
1302,8.95,-1.0,1.81,-0.56,0.28,0.05,0.0
1303,10.94,-1.07,2.13,-0.83,0.05,-0.3,0.0
1304,9.38,-0.2,2.12,-0.58,0.02,-0.09,0.0
1305,10.64,-0.18,2.11,-0.37,0.17,0.17,0.0
1306,10.98,-0.44,1.16,-0.77,-0.1,0.07,0.0
1307,9.27,-0.9,1.81,-0.51,0.13,0.08,0.0
1308,10.46,-1.47,2.93,-0.81,0.13,-0.28,0.0
1309,10.92,-0.21,1.28,-0.91,-0.13,-0.0,0.0
1310,9.03,-0.22,2.06,-0.68,-0.05,-0.07,0.0
1311,10.71,0.38,2.03,-0.29,-0.06,0.17,0.0
1312,9.28,-0.88,1.87,-0.53,0.34,-0.02,0.0
1313,11.22,-0.13,0.95,-0.86,-0.13,0.03,0.0
1314,9.27,-0.31,2.04,-0.69,0.05,-0.13,0.0
1315,10.84,-0.27,1.79,-0.23,0.06,0.16,0.0
1316,10.94,-0.61,1.19,-0.41,-0.03,0.02,0.0
1317,9.12,-1.01,1.53,-0.48,0.09,0.03,0.0
1318,10.71,-1.39,3.19,-0.85,0.06,-0.34,0.0
1319,9.02,-0.09,2.08,-0.72,-0.01,-0.09,0.0
1320,10.73,-0.1,2.27,-0.36,-0.02,0.18,0.0
1321,11.07,-0.43,1.27,-0.51,-0.1,-0.02,0.0
1322,8.88,-1.03,1.8,-0.45,0.07,-0.01,0.0
1323,10.76,-1.34,2.45,-0.75,0.03,-0.23,0.0
1324,11.01,-0.19,0.69,-0.81,-0.09,0.01,0.0
1325,9.01,-0.04,2.01,-0.71,0.15,-0.05,0.0
1326,10.78,0.12,2.22,-0.31,0.12,0.08,0.0
1327,11.33,-0.46,1.05,-0.56,-0.2,-0.01,0.0
1328,9.14,-0.82,1.95,-0.58,0.25,0.02,0.0
1329,10.78,-1.14,2.64,-0.78,0.06,-0.15,0.0
1330,10.93,-0.37,1.05,-0.86,0.02,-0.06,0.0
1331,9.22,-0.18,2.36,-0.69,0.07,-0.09,0.0
1332,10.86,0.06,2.45,-0.38,-0.04,0.08,0.0
1333,9.34,-0.92,2.14,-0.46,0.16,0.1,0.0
1334,11.19,-0.57,1.56,-0.71,-0.04,-0.02,0.0
1335,9.37,-0.3,2.34,-0.57,0.09,0.01,0.0
1336,11.12,-0.09,2.19,-0.36,-0.14,0.17,0.0
1337,10.82,-0.33,1.62,-0.81,0.04,0.06,0.0
1338,11.26,-0.82,1.41,-0.48,-0.1,-0.03,0.0
1339,9.32,-1.21,2.11,-0.48,0.14,0.05,0.0
1340,10.59,-1.22,2.66,-0.76,0.04,-0.35,0.0
1341,8.95,-0.7,2.07,-0.58,-0.04,-0.05,0.0
1342,11.03,-0.32,1.75,-0.28,-0.07,0.09,0.0
1343,9.33,-0.74,1.82,-0.52,0.15,0.01,0.0
1344,10.89,-1.37,2.55,-0.76,0.13,-0.25,0.0
1345,8.99,-0.22,1.83,-0.76,0.09,-0.06,0.0
1346,10.65,-0.09,2.12,-0.26,0.14,0.12,0.0
1347,8.82,-0.98,2.09,-0.52,0.2,0.02,0.0
1348,10.85,-0.43,0.86,-0.83,-0.18,0.0,0.0
1349,9.2,-0.35,1.97,-0.64,0.06,-0.09,0.0
1350,10.92,0.46,2.02,-0.26,0.12,0.11,0.0
1351,11.27,-0.11,0.79,-0.52,-0.14,-0.0,0.0
1352,9.14,-1.02,1.48,-0.56,0.18,0.06,0.0
1353,10.86,-1.3,2.84,-0.77,0.08,-0.18,0.0
1354,11.28,-0.18,0.77,-0.88,-0.17,0.04,0.0
1355,9.37,-0.41,2.16,-0.65,0.04,-0.13,0.0
1356,10.52,0.2,1.86,-0.23,0.1,0.08,0.0
1357,10.84,-0.06,1.63,-0.52,-0.1,0.13,0.0
1358,11.86,-0.07,1.04,-0.43,-0.16,-0.02,0.0
1359,9.2,-0.7,2.01,-0.67,0.36,-0.01,0.0
1360,11.06,-0.69,2.05,-0.74,-0.18,-0.11,0.0
1361,9.47,-0.25,2.72,-0.53,0.16,-0.09,0.0
1362,10.76,0.14,2.71,-0.32,0.01,0.13,0.0
1363,10.69,-0.9,1.15,-0.47,-0.33,-0.04,0.0
1364,9.32,-0.86,2.26,-0.65,-0.04,0.06,0.0
1365,11.12,-1.55,2.58,-0.92,0.17,-0.23,0.0
1366,9.54,-0.57,2.39,-0.88,-0.04,0.04,0.0
1367,9.04,-1.0,2.43,-0.49,0.34,0.03,0.0
1368,9.1,-0.02,2.41,-0.8,0.11,-0.04,0.0
1369,10.65,0.54,2.79,-0.26,0.15,0.26,0.0
1370,9.55,-1.28,2.34,-0.45,0.18,-0.03,0.0
1371,10.61,-1.54,2.94,-0.72,0.03,-0.31,0.0
1372,9.4,0.12,2.32,-0.8,0.08,-0.1,0.0
1373,10.64,0.5,3.19,-0.55,0.13,0.21,0.0
1374,9.03,-0.7,2.41,-0.52,0.15,0.06,0.0
1375,10.65,-1.29,2.46,-0.87,0.1,-0.31,0.0
1376,9.61,0.37,2.69,-0.83,-0.07,0.03,0.0
1377,10.95,0.19,2.32,-0.39,0.06,0.17,0.0
1378,8.97,-0.95,2.49,-0.27,-0.07,0.08,0.0
1379,10.65,-1.26,2.26,-0.91,0.13,-0.24,0.0
1380,10.58,-0.26,0.68,-1.04,-0.1,-0.08,0.0
1381,9.66,0.09,2.23,-0.78,-0.05,-0.06,0.0
1382,10.95,0.9,2.33,-0.22,0.14,0.3,0.0
1383,9.25,-0.81,1.9,-0.5,0.03,-0.04,0.0
1384,9.97,0.02,2.39,-1.02,-0.1,-0.02,0.0
1385,10.84,0.48,2.44,-0.4,-0.13,0.05,0.0
1386,9.21,-0.8,1.87,-0.44,0.14,0.09,0.0
1387,10.27,-1.53,2.28,-0.74,0.24,-0.2,0.0
1388,10.54,0.22,1.02,-0.96,-0.3,-0.04,0.0
1389,9.6,-0.14,2.71,-0.67,-0.05,-0.12,0.0
1390,10.82,0.62,1.9,-0.43,0.18,0.08,0.0
1391,9.72,-0.74,2.02,-0.54,0.3,0.09,0.0
1392,9.54,-0.19,2.8,-0.64,-0.0,-0.17,0.0
1393,11.21,0.57,3.28,-0.45,-0.01,0.22,0.0
1394,9.06,-1.25,2.15,-0.68,0.13,0.08,0.0
1395,9.96,-1.46,2.51,-0.72,0.09,-0.24,0.0
1396,9.2,-0.18,2.67,-0.65,-0.07,-0.02,0.0
1397,10.82,-0.05,2.44,-0.2,0.16,0.28,0.0
1398,9.31,-1.48,2.28,-0.46,0.2,0.04,0.0
1399,10.68,-1.72,3.06,-0.86,0.08,-0.16,0.0
1400,10.49,-0.27,1.02,-1.15,-0.15,-0.02,0.0
1401,9.39,-0.34,1.98,-0.98,-0.13,-0.05,0.0
1402,10.57,0.45,2.55,-0.25,0.46,0.18,0.0
1403,9.03,-1.31,2.32,-0.6,0.14,0.08,0.0
1404,10.98,-1.66,3.28,-0.88,0.09,-0.16,0.0
1405,9.08,-0.18,2.55,-0.82,-0.04,-0.04,0.0
1406,11.02,0.03,2.63,-0.19,0.09,0.21,0.0
1407,10.68,-0.81,1.9,-0.62,-0.17,-0.04,0.0
1408,9.49,-1.02,2.29,-0.65,0.16,-0.01,0.0
1409,10.18,-1.57,2.27,-0.83,0.02,-0.31,0.0
1410,10.64,-0.02,0.86,-0.9,-0.14,-0.06,0.0
1411,9.35,0.04,2.26,-0.75,-0.02,-0.06,0.0
1412,10.86,-0.06,1.61,-0.3,-0.04,0.18,0.0
1413,11.15,-0.51,1.36,-0.36,-0.21,0.0,0.0
1414,10.56,-0.46,1.1,-0.87,0.15,-0.3,0.0
1415,9.24,-0.02,1.57,-0.69,-0.11,0.05,0.0
1416,10.6,-0.2,1.56,-0.21,-0.02,0.3,0.0
1417,11.6,-0.51,0.67,-0.45,-0.17,-0.12,0.0
1418,10.69,-1.28,2.15,-0.74,0.05,-0.26,0.0
1419,11.09,-0.29,0.99,-0.78,-0.18,-0.05,0.0
1420,9.17,-0.33,1.86,-0.6,-0.02,-0.04,0.0
1421,11.04,0.17,1.76,-0.35,0.05,0.09,0.0
1422,11.68,-0.54,1.02,-0.35,-0.2,-0.03,0.0
1423,9.21,-0.93,2.03,-0.47,0.24,0.08,0.0
1424,11.06,-1.36,2.42,-0.86,0.0,-0.3,0.0
1425,11.04,0.12,1.31,-0.83,-0.06,0.02,0.0
1426,9.49,-0.23,2.34,-0.71,0.15,-0.06,0.0
1427,10.78,-0.24,2.14,-0.34,0.04,0.18,0.0
1428,9.04,-0.94,2.14,-0.5,0.12,0.03,0.0
1429,10.59,-1.19,2.14,-0.82,0.08,-0.37,0.0
1430,9.58,-0.45,2.38,-0.63,-0.01,-0.08,0.0
1431,10.57,0.03,2.52,-0.49,0.14,0.09,0.0
1432,11.44,-0.22,1.12,-0.44,-0.17,-0.03,0.0
1433,9.36,-0.78,2.01,-0.48,0.14,0.06,0.0
1434,10.55,-1.33,2.31,-0.77,0.18,-0.28,0.0
1435,10.88,-0.01,1.01,-0.86,-0.14,0.04,0.0
1436,9.81,0.04,2.49,-0.74,0.1,-0.09,0.0
1437,10.93,-0.06,2.11,-0.22,-0.03,0.17,0.0
1438,10.88,-1.35,3.06,-0.74,0.02,-0.27,0.0
1439,10.71,0.14,1.23,-0.69,-0.06,-0.01,0.0
1440,10.34,0.48,1.53,-0.72,-0.06,-0.1,0.0
1441,10.97,0.4,2.11,-0.27,0.05,0.17,0.0
1442,11.18,0.09,1.25,-0.63,-0.18,0.07,0.0
1443,9.34,-0.56,1.75,-0.72,0.2,0.08,0.0
1444,10.98,-0.46,0.96,-0.62,0.01,0.02,0.0
1445,9.11,0.08,1.81,-0.65,0.01,-0.05,0.0
1446,10.8,0.04,2.17,-0.25,0.08,0.12,0.0
1447,11.05,-0.07,1.85,-0.68,-0.11,0.07,0.0
1448,9.3,-0.74,2.02,-0.53,0.22,0.02,0.0
1449,11.22,-0.3,0.92,-0.76,-0.15,0.01,0.0
1450,9.15,-0.08,1.84,-0.64,0.05,-0.08,0.0
1451,10.82,-0.08,1.89,-0.19,0.17,0.2,0.0
1452,11.22,-0.65,1.01,-0.6,-0.04,-0.05,0.0
1453,9.13,-1.0,1.91,-0.55,0.14,0.03,0.0
1454,11.04,-0.38,1.1,-0.75,-0.06,0.03,0.0
1455,9.27,-0.39,2.38,-0.51,-0.02,-0.03,0.0
1456,11.01,-0.11,1.89,-0.35,-0.12,0.11,0.0
1457,10.94,-0.34,1.22,-0.88,-0.01,0.03,0.0
1458,11.07,-0.78,0.87,-0.37,-0.02,-0.03,0.0
1459,9.19,-0.8,1.74,-0.47,0.18,0.04,0.0
1460,10.81,-1.34,2.71,-0.68,0.09,-0.28,0.0
1461,11.21,-0.17,1.22,-0.88,-0.22,-0.02,0.0
1462,9.31,-0.13,2.4,-0.68,0.02,-0.07,0.0
1463,11.05,0.11,1.34,-0.36,-0.28,0.07,0.0
1464,11.2,-0.73,0.62,-0.58,-0.06,0.03,0.0
1465,9.22,-1.12,1.58,-0.57,0.2,0.1,0.0
1466,10.59,-1.13,2.2,-0.75,0.13,-0.32,0.0
1467,11.4,-0.08,0.89,-0.75,-0.09,-0.02,0.0
1468,9.02,-0.31,2.07,-0.6,0.17,-0.07,0.0
1469,11.07,-0.02,1.83,-0.3,-0.12,0.07,0.0
1470,11.59,-0.7,0.95,-0.38,-0.12,-0.06,0.0
1471,9.21,-0.73,1.89,-0.46,0.26,0.08,0.0
1472,10.86,-1.16,2.34,-0.71,0.09,-0.22,0.0
1473,11.21,-0.28,0.78,-0.86,-0.22,-0.06,0.0
1474,9.32,-0.28,2.2,-0.63,-0.06,-0.05,0.0
1475,11.32,0.04,1.36,-0.35,-0.13,0.09,0.0
1476,11.48,-0.68,0.69,-0.45,-0.11,-0.0,0.0
1477,10.03,-0.65,1.66,-0.49,0.33,0.05,0.0
1478,11.02,-1.09,2.63,-0.72,-0.01,-0.22,0.0
1479,11.03,-0.46,1.12,-0.81,-0.1,-0.02,0.0
1480,9.29,-0.09,2.18,-0.69,0.05,-0.1,0.0
1481,10.87,0.3,1.91,-0.26,-0.05,0.09,0.0
1482,11.52,-0.72,0.86,-0.56,-0.12,0.05,0.0
1483,9.2,-1.01,1.74,-0.49,0.22,0.14,0.0
1484,10.75,-1.28,2.18,-0.85,0.18,-0.3,0.0
1485,11.19,-0.38,0.91,-0.8,-0.19,-0.02,0.0
1486,9.06,-0.26,2.04,-0.82,0.06,-0.1,0.0
1487,10.95,-0.16,2.04,-0.3,-0.02,0.06,0.0
1488,8.97,-0.89,1.74,-0.51,0.22,0.09,0.0
1489,10.63,-1.52,2.08,-0.85,0.12,-0.27,0.0
1490,11.32,-0.51,0.6,-0.72,-0.04,0.01,0.0
1491,9.07,-0.34,1.71,-0.67,-0.01,-0.08,0.0
1492,11.07,0.15,1.72,-0.23,0.12,0.1,0.0
1493,11.29,-0.54,1.02,-0.48,-0.04,0.02,0.0
1494,9.18,-0.85,1.95,-0.49,0.16,0.03,0.0
1495,11.46,-0.58,0.82,-0.81,-0.26,-0.02,0.0
1496,9.55,-0.36,2.28,-0.62,0.07,-0.07,0.0
1497,10.78,-0.1,1.74,-0.2,-0.0,0.11,0.0
1498,9.24,-0.94,1.73,-0.55,0.23,0.03,0.0
1499,10.75,-1.36,2.25,-0.75,0.12,-0.28,0.0
1500,11.19,-0.17,0.93,-0.78,-0.2,-0.05,0.0
1501,9.33,-0.08,2.36,-0.68,-0.01,-0.08,0.0
1502,11.29,-0.05,1.79,-0.31,-0.06,0.15,0.0
1503,11.5,-0.57,0.78,-0.54,-0.06,-0.03,0.0
1504,9.08,-0.75,1.66,-0.54,0.16,0.04,0.0
1505,10.63,-1.45,2.51,-0.75,0.17,-0.29,0.0
1506,11.15,-0.08,1.06,-0.86,-0.18,-0.02,0.0
1507,9.32,-0.14,1.98,-0.54,-0.04,-0.07,0.0
1508,10.87,0.09,1.65,-0.24,0.0,0.16,0.0
1509,11.29,-0.59,0.73,-0.46,-0.05,0.06,0.0
1510,9.32,-0.69,1.81,-0.5,0.17,0.08,0.0
1511,10.79,-1.16,2.48,-0.69,0.03,-0.28,0.0
1512,11.15,-0.32,0.75,-0.85,-0.02,-0.03,0.0
1513,9.06,-0.16,2.01,-0.73,0.02,-0.12,0.0
1514,11.27,-0.28,1.86,-0.3,-0.07,0.1,0.0
1515,11.1,-0.31,0.73,-0.81,-0.01,0.1,0.0
1516,11.39,-0.92,0.7,-0.49,-0.06,-0.05,0.0
1517,9.45,-0.94,1.65,-0.48,0.29,0.08,0.0
1518,10.75,-1.12,2.39,-0.71,0.0,-0.26,0.0
1519,11.28,-0.24,1.04,-0.86,-0.05,-0.07,0.0
1520,9.03,-0.22,2.17,-0.74,0.1,-0.12,0.0
1521,10.64,-0.32,2.0,-0.21,-0.01,0.13,0.0
1522,11.44,-0.32,1.07,-0.5,-0.09,-0.02,0.0
1523,8.86,-0.89,1.84,-0.63,0.21,0.02,0.0
1524,10.83,-1.2,2.13,-0.8,0.05,-0.29,0.0
1525,10.39,-0.23,0.75,-0.74,0.01,0.02,0.0
1526,9.19,-0.12,1.94,-0.68,0.03,-0.07,0.0
1527,10.67,-0.36,2.49,-0.47,0.08,0.08,0.0
1528,11.57,-0.7,1.19,-0.37,-0.2,-0.1,0.0
1529,9.04,-0.88,1.85,-0.39,0.15,-0.01,0.0
1530,9.34,-0.23,2.1,-0.78,0.03,-0.09,0.0
1531,10.65,-0.21,1.92,-0.25,0.06,0.21,0.0
1532,11.78,-0.27,1.1,-0.46,-0.19,-0.05,0.0
1533,9.09,-1.04,2.01,-0.45,0.22,-0.0,0.0
1534,10.74,-1.02,2.32,-0.72,0.06,-0.22,0.0
1535,8.86,-0.17,1.73,-0.73,0.09,-0.06,0.0
1536,10.97,-0.14,2.06,-0.22,0.13,0.19,0.0
1537,11.15,-0.45,1.25,-0.77,-0.05,0.04,0.0
1538,11.4,-0.4,1.12,-0.58,-0.02,0.04,0.0
1539,8.96,-1.19,1.84,-0.52,0.18,0.02,0.0
1540,11.08,-0.56,0.84,-0.75,-0.08,0.0,0.0
1541,9.48,-0.31,2.15,-0.59,0.05,-0.05,0.0
1542,10.86,-0.26,2.65,-0.34,-0.06,0.2,0.0
1543,11.27,-0.75,1.13,-0.52,-0.1,-0.0,0.0
1544,8.83,-1.18,1.78,-0.49,0.12,-0.02,0.0
1545,10.37,-1.28,2.38,-0.74,0.04,-0.33,0.0
1546,10.81,-0.51,1.17,-0.85,0.02,0.02,0.0
1547,9.21,-0.17,1.9,-0.79,0.15,-0.05,0.0
1548,10.72,0.14,2.39,-0.35,-0.02,0.1,0.0
1549,8.92,-1.25,1.89,-0.59,0.16,0.06,0.0
1550,10.4,-1.32,2.19,-0.69,0.13,-0.29,0.0
1551,11.12,-0.5,1.11,-0.72,-0.08,0.0,0.0
1552,9.24,-0.4,1.98,-0.63,0.04,-0.06,0.0
1553,10.9,0.06,1.97,-0.33,-0.03,0.09,0.0
1554,11.37,-0.56,0.98,-0.56,-0.07,0.01,0.0
1555,9.01,-1.01,1.75,-0.52,0.11,0.07,0.0
1556,10.53,-1.51,2.02,-0.81,0.23,-0.27,0.0
1557,11.22,-0.45,0.8,-0.91,-0.24,-0.05,0.0
1558,9.32,-0.14,1.99,-0.79,-0.02,-0.07,0.0
1559,10.8,-0.18,1.5,-0.3,0.02,0.13,0.0
1560,11.03,-0.57,0.58,-0.46,-0.09,-0.01,0.0
1561,9.07,-0.79,1.56,-0.47,0.12,0.07,0.0
1562,10.28,-1.27,2.49,-0.75,0.34,-0.27,0.0
1563,10.69,-1.11,2.61,-0.74,0.27,-0.22,0.0
1564,11.08,-0.22,0.92,-0.94,-0.14,-0.01,0.0
1565,9.28,-0.15,2.09,-0.7,0.01,-0.07,0.0
1566,10.72,0.18,1.81,-0.43,-0.05,0.1,0.0
1567,9.56,-0.76,1.87,-0.54,0.23,0.03,0.0
1568,10.57,-1.18,2.35,-0.73,0.21,-0.26,0.0
1569,9.01,-0.23,2.07,-0.72,0.05,-0.08,0.0
1570,10.87,0.34,2.08,-0.24,0.03,0.1,0.0
1571,11.38,-0.45,1.02,-0.62,-0.05,-0.01,0.0
1572,9.32,-1.18,1.89,-0.6,0.17,0.05,0.0
1573,11.39,-0.34,0.99,-0.75,-0.17,-0.01,0.0
1574,9.01,-0.15,1.91,-0.65,0.02,-0.08,0.0
1575,10.85,0.04,1.75,-0.23,-0.03,0.16,0.0
1576,10.9,-0.39,1.2,-0.75,-0.01,0.04,0.0
1577,11.23,-0.48,1.03,-0.54,-0.07,-0.0,0.0
1578,9.25,-1.1,1.83,-0.48,0.17,0.04,0.0
1579,10.53,-0.98,2.49,-0.8,0.18,-0.25,0.0
1580,11.43,-0.37,0.94,-0.77,-0.15,-0.02,0.0
1581,9.21,-0.37,1.94,-0.66,0.08,-0.05,0.0
1582,10.75,-0.01,2.13,-0.26,0.09,0.14,0.0
1583,9.3,-1.18,1.7,-0.5,0.24,0.03,0.0
1584,11.29,-0.45,1.0,-0.85,-0.12,-0.02,0.0
1585,9.26,-0.11,1.7,-0.76,0.05,-0.1,0.0
1586,10.81,-0.13,1.93,-0.19,-0.07,0.12,0.0
1587,11.69,-0.14,0.81,-0.62,-0.03,-0.04,0.0
1588,8.94,-0.75,1.89,-0.58,0.15,0.02,0.0
1589,10.29,-1.38,2.52,-0.74,0.13,-0.23,0.0
1590,11.3,-0.38,0.68,-0.82,-0.13,0.06,0.0
1591,9.35,-0.42,1.81,-0.62,0.04,-0.1,0.0
1592,10.8,-0.08,1.83,-0.39,0.12,0.06,0.0
1593,11.96,-0.46,1.1,-0.45,-0.1,0.01,0.0
1594,9.82,-0.53,1.88,-0.5,0.29,-0.04,0.0
1595,11.44,-0.21,0.87,-0.91,-0.19,-0.02,0.0
1596,9.08,0.05,2.09,-0.7,-0.03,-0.1,0.0
1597,10.77,-0.04,1.56,-0.18,0.02,0.2,0.0
1598,9.64,-1.09,1.79,-0.57,0.32,0.08,0.0
1599,9.55,-0.25,1.78,-0.69,0.06,-0.07,0.0
1600,11.06,-0.06,2.15,-0.3,0.07,0.14,0.0
1601,11.42,-0.47,1.41,-0.53,-0.13,0.04,0.0
1602,9.04,-0.76,2.01,-0.45,0.19,-0.04,0.0
1603,10.35,-1.48,2.64,-0.8,0.04,-0.24,0.0
1604,11.36,-0.12,0.82,-0.84,-0.07,0.04,0.0
1605,9.18,-0.25,2.22,-0.62,0.04,-0.07,0.0
1606,11.07,0.04,2.22,-0.2,-0.0,0.15,0.0
1607,11.51,-0.78,0.98,-0.59,-0.11,0.01,0.0
1608,8.8,-1.09,1.72,-0.6,0.35,0.03,0.0
1609,11.59,-1.32,1.42,-0.53,-0.39,-0.22,0.0
1610,11.17,-0.44,1.17,-0.79,-0.11,-0.01,0.0
1611,9.19,-0.32,1.99,-0.63,-0.07,-0.09,0.0
1612,10.77,0.11,2.43,-0.35,0.02,0.09,0.0
1613,9.08,-0.93,1.9,-0.61,0.17,0.06,0.0
1614,10.52,-1.01,2.06,-0.84,0.06,-0.26,0.0
1615,8.96,0.07,2.03,-0.76,0.1,-0.13,0.0
1616,10.94,0.02,1.81,-0.27,0.01,0.1,0.0
1617,10.72,-1.11,2.53,-0.8,0.17,-0.33,0.0
1618,10.85,-0.1,0.95,-0.85,-0.11,0.01,0.0
1619,9.33,0.07,1.79,-0.8,-0.06,-0.03,0.0
1620,10.69,0.03,1.88,-0.39,0.1,0.17,0.0
1621,10.81,0.21,1.85,-0.63,-0.04,0.08,0.0
1622,11.63,-0.25,0.74,-0.47,-0.18,-0.04,0.0
1623,9.01,-0.91,1.64,-0.47,0.16,0.05,0.0
1624,10.67,-1.0,1.89,-0.71,0.17,-0.3,0.0
1625,9.13,-0.33,1.87,-0.85,0.16,-0.02,0.0
1626,11.29,-0.35,1.82,-0.32,-0.04,0.12,0.0
1627,11.46,-0.37,1.25,-0.83,-0.08,-0.03,0.0
1628,9.96,-0.69,1.67,-0.48,0.3,-0.04,0.0
1629,10.7,-1.12,2.51,-0.72,0.14,-0.24,0.0
1630,11.49,-0.17,0.6,-0.94,-0.1,-0.01,0.0
1631,9.52,-0.14,2.2,-0.75,0.08,-0.09,0.0
1632,10.95,-0.07,2.08,-0.22,0.11,0.16,0.0
1633,9.26,-1.03,1.82,-0.51,0.2,0.03,0.0
1634,10.4,-1.46,2.87,-0.7,0.24,-0.25,0.0
1635,11.18,-0.06,0.96,-0.9,-0.15,0.02,0.0
1636,9.49,-0.3,2.38,-0.68,0.06,-0.07,0.0
1637,10.87,-0.18,2.16,-0.24,0.04,0.17,0.0
1638,11.61,-0.33,1.36,-0.6,-0.08,-0.04,0.0
1639,8.96,-1.2,2.15,-0.53,0.17,-0.04,0.0
1640,10.99,-1.15,2.72,-0.83,-0.05,-0.23,0.0
1641,9.06,-0.12,2.04,-0.65,-0.06,-0.09,0.0
1642,11.0,-0.36,1.59,-0.12,-0.07,0.21,0.0
1643,11.34,-0.47,1.05,-0.48,-0.07,0.01,0.0
1644,9.95,-0.51,1.66,-0.42,0.2,0.05,0.0
1645,11.35,-0.51,1.0,-0.63,-0.17,-0.15,0.0
1646,10.73,-0.18,1.38,-0.96,-0.08,-0.05,0.0
1647,9.45,-0.54,2.11,-0.66,-0.05,-0.05,0.0
1648,10.79,0.02,2.28,-0.29,0.12,0.14,0.0
1649,11.48,-0.45,1.06,-0.51,-0.09,-0.04,0.0
1650,9.71,-0.58,1.86,-0.48,0.3,-0.04,0.0
1651,10.93,-1.46,2.91,-0.69,0.03,-0.25,0.0
1652,11.32,-0.3,1.24,-0.88,-0.19,0.01,0.0
1653,9.46,-0.02,2.38,-0.75,0.09,-0.09,0.0
1654,10.88,0.12,1.93,-0.26,-0.03,0.18,0.0
1655,8.99,-0.89,1.96,-0.48,0.22,0.06,0.0
1656,10.64,-0.88,1.93,-0.76,-0.0,-0.28,0.0
1657,11.18,-0.94,0.92,-0.59,-0.06,-0.18,0.0
1658,11.31,-0.38,1.17,-0.85,0.02,-0.0,0.0
1659,9.02,-0.41,1.97,-0.75,0.06,-0.08,0.0
1660,10.43,0.36,2.06,-0.37,0.16,0.15,0.0
1661,11.17,-0.21,1.48,-0.81,-0.17,0.06,0.0
1662,11.52,-0.43,1.19,-0.58,-0.14,-0.03,0.0
1663,9.04,-1.22,1.89,-0.49,0.19,0.1,0.0
1664,11.11,-0.67,1.45,-0.73,-0.12,-0.01,0.0
1665,9.1,-0.41,2.07,-0.66,0.04,-0.07,0.0
1666,10.85,0.1,2.23,-0.32,0.01,0.1,0.0
1667,11.81,-0.62,1.13,-0.52,-0.11,0.0,0.0
1668,9.19,-1.06,1.93,-0.49,0.26,0.03,0.0
1669,10.86,-1.13,3.07,-0.63,-0.01,-0.25,0.0
1670,11.28,-0.35,1.19,-0.79,-0.13,0.01,0.0
1671,9.05,0.07,2.51,-0.73,0.09,-0.07,0.0
1672,10.8,-0.32,2.18,-0.22,-0.04,0.19,0.0
1673,9.18,-1.02,2.02,-0.55,0.14,0.03,0.0
1674,10.72,-1.54,2.64,-0.65,0.02,-0.22,0.0
1675,11.36,-0.38,1.2,-0.78,-0.17,0.03,0.0
1676,9.07,-0.17,2.46,-0.63,0.03,-0.07,0.0
1677,10.95,-0.23,1.99,-0.21,0.01,0.13,0.0
1678,11.36,-0.39,1.06,-0.56,-0.09,0.01,0.0
1679,9.14,-0.95,1.99,-0.52,0.15,0.03,0.0
1680,10.61,-1.28,2.7,-0.79,0.07,-0.28,0.0
1681,11.24,-0.29,0.99,-0.82,-0.22,0.0,0.0
1682,9.24,-0.16,2.48,-0.57,-0.06,-0.04,0.0
1683,10.87,-0.04,2.12,-0.34,0.05,0.14,0.0
1684,11.64,-0.56,1.13,-0.52,-0.13,0.01,0.0
1685,10.08,-0.8,2.12,-0.5,0.2,0.03,0.0
1686,10.31,-1.01,2.37,-0.73,0.01,-0.29,0.0
1687,11.31,-0.41,1.05,-0.7,-0.11,0.05,0.0
1688,9.17,-0.31,2.12,-0.6,0.1,-0.06,0.0
1689,10.6,-0.21,2.15,-0.29,0.04,0.11,0.0
1690,11.64,-0.2,1.31,-0.55,-0.1,0.02,0.0
1691,9.51,-0.76,2.11,-0.55,0.19,0.0,0.0
1692,10.73,-1.43,2.79,-0.7,0.08,-0.26,0.0
1693,10.87,-0.13,0.89,-0.98,-0.0,0.04,0.0
1694,9.29,-0.01,2.26,-0.87,0.11,-0.05,0.0
1695,10.8,-0.15,2.39,-0.34,0.06,0.17,0.0
1696,9.24,-1.33,2.08,-0.48,0.18,0.04,0.0
1697,10.52,-1.38,2.74,-0.66,0.03,-0.28,0.0
1698,10.82,-0.13,0.94,-0.76,-0.1,0.04,0.0
1699,9.33,-0.14,2.32,-0.64,-0.03,-0.05,0.0
1700,10.64,-0.12,2.03,-0.35,0.01,0.16,0.0
1701,11.63,-0.38,1.09,-0.59,-0.09,-0.02,0.0
1702,9.1,-1.37,1.91,-0.58,0.21,0.09,0.0
1703,11.38,-0.14,0.88,-0.79,-0.13,0.01,0.0
1704,9.38,0.03,2.16,-0.71,0.03,-0.13,0.0
1705,10.65,-0.18,2.07,-0.32,0.09,0.17,0.0
1706,9.08,-0.98,1.64,-0.49,0.19,0.06,0.0
1707,10.46,-1.14,2.08,-0.72,0.19,-0.29,0.0
1708,11.59,-0.24,0.63,-0.81,-0.12,0.03,0.0
1709,9.45,-0.56,1.87,-0.66,0.08,-0.05,0.0
1710,10.69,-0.4,1.93,-0.47,0.07,0.07,0.0
1711,11.19,-0.37,0.91,-0.52,-0.04,0.02,0.0
1712,9.0,-1.05,1.95,-0.55,0.23,0.06,0.0
1713,10.57,-0.95,2.36,-0.81,0.17,-0.32,0.0
1714,11.0,-0.19,1.17,-0.89,-0.07,0.03,0.0
1715,9.52,-0.11,2.31,-0.75,0.06,-0.1,0.0
1716,10.67,-0.08,2.35,-0.4,0.09,0.13,0.0
1717,9.15,-1.13,1.96,-0.49,0.18,0.01,0.0
1718,10.81,-1.3,2.78,-0.7,0.09,-0.16,0.0
1719,11.11,-0.42,0.9,-0.9,-0.03,0.03,0.0
1720,9.1,-0.33,2.27,-0.74,0.08,-0.11,0.0
1721,10.78,-0.28,2.8,-0.3,0.01,0.13,0.0
1722,11.53,-0.23,1.33,-0.54,-0.26,0.01,0.0
1723,9.04,-1.04,1.92,-0.58,0.27,0.04,0.0
1724,10.47,-1.32,3.47,-0.71,0.07,-0.12,0.0
1725,11.01,-0.46,1.45,-0.81,-0.03,-0.05,0.0
1726,8.93,-0.23,2.48,-0.77,0.13,-0.16,0.0
1727,10.53,-0.15,3.05,-0.3,-0.01,0.17,0.0
1728,8.76,-1.24,1.78,-0.6,0.27,0.04,0.0
1729,11.15,-0.43,1.22,-0.87,-0.18,0.09,0.0
1730,9.0,-0.2,2.2,-0.76,0.11,-0.05,0.0
1731,10.98,-0.13,2.43,-0.29,-0.02,0.21,0.0
1732,9.01,-1.26,1.81,-0.52,0.31,-0.05,0.0
1733,11.42,-0.34,1.18,-0.89,-0.15,-0.01,0.0
1734,8.94,0.09,2.0,-0.76,0.05,-0.06,0.0
1735,10.53,0.03,2.04,-0.38,0.03,0.11,0.0
1736,10.61,0.26,2.16,-0.43,0.02,0.14,0.0
1737,11.56,-0.44,0.74,-0.5,-0.13,-0.04,0.0
1738,8.98,-1.05,1.44,-0.44,0.25,0.04,0.0
1739,10.55,-1.37,2.4,-0.77,0.19,-0.22,0.0
1740,9.46,-0.45,2.2,-0.78,-0.02,-0.02,0.0
1741,10.99,-0.46,1.98,-0.34,-0.01,0.18,0.0
1742,11.76,-0.23,0.51,-0.55,-0.16,0.01,0.0
1743,8.87,-1.08,2.06,-0.7,0.11,-0.15,0.0
1744,11.37,-0.8,1.72,-0.64,-0.12,-0.05,0.0
1745,9.13,0.23,1.94,-0.48,0.16,-0.13,0.0
1746,11.14,-0.43,2.04,-0.48,0.03,0.08,0.0
1747,10.95,-1.28,1.65,-0.3,-0.17,0.03,0.0
1748,9.03,-1.02,2.21,-0.38,0.08,0.03,0.0
1749,10.26,-1.5,3.56,-0.79,0.13,-0.27,0.0
1750,10.58,-0.93,2.04,-0.98,-0.23,-0.01,0.0
1751,9.75,-0.38,2.59,-0.72,0.04,0.02,0.0
1752,10.03,-0.27,3.21,-0.23,0.02,0.28,0.0
1753,8.97,-1.23,1.83,-0.54,0.18,-0.05,0.0
1754,10.6,-1.58,2.32,-0.75,0.08,-0.22,0.0
1755,11.23,-0.46,1.28,-1.14,-0.21,-0.03,0.0
1756,10.7,-0.16,2.26,-0.0,0.26,0.25,0.0
1757,10.88,-1.31,2.67,-0.88,0.09,-0.21,0.0
1758,10.98,-0.51,1.34,-0.97,-0.19,-0.02,0.0
1759,9.18,-0.1,1.95,-0.72,0.03,0.01,0.0
1760,11.02,-0.04,2.11,-0.29,0.21,0.16,0.0
1761,8.95,-1.22,2.16,-0.4,-0.01,0.01,0.0
1762,9.35,-1.09,1.93,-0.86,0.29,-0.26,0.0
1763,11.09,-0.99,2.45,-0.92,0.08,-0.35,0.0
1764,9.23,-0.1,2.44,-0.83,-0.01,-0.02,0.0
1765,10.69,-0.09,2.75,-0.2,0.22,0.22,0.0
1766,8.92,-1.24,2.04,-0.41,0.16,-0.0,0.0
1767,10.45,-1.54,2.11,-0.77,0.09,-0.11,0.0
1768,9.3,-0.21,2.31,-0.63,0.0,-0.17,0.0
1769,10.44,0.68,2.08,-0.4,-0.02,0.06,0.0
1770,9.36,-0.84,2.27,-0.53,0.14,0.1,0.0
1771,11.42,-0.82,2.26,-0.9,0.15,-0.26,0.0
1772,10.64,-0.18,0.67,-0.88,-0.26,-0.02,0.0
1773,10.24,-0.02,2.08,-0.61,-0.08,-0.04,0.0
1774,10.77,0.91,1.74,-0.34,0.15,0.23,0.0
1775,10.11,-0.79,1.93,-0.33,0.05,-0.0,0.0
1776,11.1,-0.78,1.04,-0.97,0.1,-0.35,0.0
1777,9.24,0.16,1.58,-0.96,-0.19,0.12,0.0
1778,10.83,0.23,2.0,-0.19,0.05,0.36,0.0
1779,9.88,-1.35,1.82,-0.54,0.3,0.07,0.0
1780,10.44,-1.75,2.73,-0.76,0.25,-0.4,0.0
1781,11.09,-0.35,1.7,-0.8,-0.17,-0.07,0.0
1782,9.17,0.28,2.31,-0.68,0.09,-0.06,0.0
1783,10.86,0.37,2.91,-0.52,0.18,0.2,0.0
1784,8.99,-0.58,2.19,-0.38,0.25,0.04,0.0
1785,10.69,-1.11,3.0,-0.79,0.11,-0.25,0.0
1786,9.13,0.21,1.96,-0.8,-0.01,-0.1,0.0
1787,10.59,0.06,2.47,-0.12,-0.05,0.29,0.0
1788,9.03,-0.81,1.89,-0.55,0.32,0.01,0.0
1789,11.41,-0.24,1.83,-0.97,-0.14,0.01,0.0
1790,9.81,0.09,2.64,-0.76,0.14,-0.04,0.0
1791,10.76,0.39,3.28,-0.27,0.02,0.23,0.0
1792,9.17,-1.07,2.69,-0.62,0.31,0.09,0.0
1793,11.15,-1.74,3.43,-0.63,0.0,-0.21,0.0
1794,10.0,-0.27,1.94,-0.7,-0.05,-0.12,0.0
1795,9.0,-0.17,2.26,-0.66,0.04,-0.11,0.0
1796,10.13,0.64,3.66,-0.34,0.02,0.17,0.0
1797,9.51,-0.86,2.73,-0.88,0.3,0.08,0.0
1798,10.31,-1.74,2.77,-0.91,0.0,-0.27,0.0
1799,9.64,-0.4,2.07,-0.58,-0.01,-0.18,0.0
1800,10.59,0.37,3.18,-0.42,0.2,0.17,0.0
1801,11.2,-0.96,1.99,-0.44,-0.14,-0.05,0.0
1802,8.98,-1.16,2.48,-0.57,0.18,0.05,0.0
1803,9.96,-1.61,2.77,-0.61,0.02,-0.18,0.0
1804,9.2,-0.16,2.62,-0.61,0.02,-0.07,0.0
1805,10.75,0.25,2.87,-0.44,0.07,0.1,0.0
1806,10.81,-0.88,1.57,-0.52,-0.11,-0.08,0.0
1807,9.05,-0.97,2.17,-0.56,0.15,0.06,0.0
1808,10.27,-1.55,3.09,-0.73,0.17,-0.24,0.0
1809,11.3,-0.8,1.88,-1.04,-0.23,-0.08,0.0
1810,9.04,-0.28,2.76,-0.71,0.14,-0.11,0.0
1811,10.36,0.08,2.52,-0.3,-0.07,0.18,0.0
1812,8.26,-0.71,2.51,-0.78,0.24,0.08,0.0
1813,10.23,-1.69,2.23,-0.9,-0.1,-0.4,0.0
1814,11.11,-0.57,1.53,-0.94,-0.15,-0.11,0.0
1815,9.16,0.04,2.23,-0.66,0.05,-0.11,0.0
1816,10.78,0.77,2.27,-0.57,0.2,0.17,0.0
1817,9.64,-1.21,2.13,-0.33,0.17,0.07,0.0
1818,10.48,-1.32,2.99,-0.91,0.23,-0.3,0.0
1819,11.44,-0.43,1.82,-1.08,-0.23,-0.05,0.0
1820,9.38,-0.28,2.69,-0.82,0.17,-0.05,0.0
1821,10.34,0.34,3.11,-0.28,0.09,0.2,0.0
1822,11.24,-1.53,3.31,-0.82,0.01,-0.29,0.0
1823,8.95,0.18,2.42,-0.7,0.01,-0.03,0.0
1824,10.66,-0.58,2.58,-0.29,0.11,0.25,0.0
1825,9.18,-0.95,2.17,-0.39,0.22,0.03,0.0
1826,10.1,-1.51,3.11,-0.9,0.06,-0.22,0.0
1827,11.09,-0.48,1.41,-1.09,-0.29,-0.18,0.0
1828,9.31,-0.24,2.27,-0.78,0.04,-0.02,0.0
1829,10.9,0.16,2.71,-0.21,0.21,0.28,0.0
1830,9.37,-0.97,1.93,-0.35,0.18,0.02,0.0
1831,10.45,-1.53,2.6,-0.88,0.3,-0.33,0.0
1832,11.04,-0.37,1.4,-1.14,-0.3,-0.05,0.0
1833,10.84,-0.0,2.28,-0.17,0.01,0.26,0.0
1834,9.64,-0.72,2.35,-0.48,0.0,-0.03,0.0
1835,11.4,-0.91,2.8,-0.88,0.06,-0.18,0.0
1836,9.32,-0.09,2.55,-0.74,-0.08,-0.05,0.0
1837,11.31,0.02,2.31,-0.41,0.2,0.16,0.0
1838,10.93,-1.26,3.05,-0.82,0.11,-0.2,0.0
1839,9.33,0.33,2.66,-0.8,0.06,-0.07,0.0
1840,10.7,-0.11,2.57,-0.33,-0.0,0.24,0.0
1841,9.17,-1.1,2.23,-0.49,0.06,0.05,0.0
1842,10.7,-0.97,2.56,-0.84,0.17,-0.29,0.0
1843,9.38,-0.21,2.11,-0.66,0.03,-0.13,0.0
1844,10.72,0.46,2.34,-0.26,0.1,0.21,0.0
1845,9.5,-1.01,2.06,-0.48,0.14,0.07,0.0
1846,10.57,-1.3,2.51,-0.89,0.27,-0.32,0.0
1847,11.07,-0.43,1.4,-1.08,-0.27,-0.09,0.0
1848,9.63,-0.47,2.63,-0.61,0.12,-0.17,0.0
1849,10.44,0.57,2.64,-0.18,0.09,0.19,0.0
1850,11.43,-0.61,1.06,-0.29,-0.3,-0.02,0.0
1851,9.22,-0.44,2.28,-0.45,0.19,0.03,0.0
1852,9.87,-1.58,2.28,-0.82,0.26,-0.24,0.0
1853,10.41,-0.73,1.46,-1.08,-0.18,-0.1,0.0
1854,9.5,0.37,2.7,-0.63,0.11,-0.18,0.0
1855,11.03,0.28,2.72,-0.35,0.11,0.29,0.0
1856,9.03,-0.91,2.09,-0.32,0.13,0.06,0.0
1857,10.3,-1.4,3.07,-0.87,0.11,-0.23,0.0
1858,10.63,-0.78,1.95,-0.88,-0.23,-0.12,0.0
1859,9.36,-0.26,2.6,-0.6,0.13,-0.1,0.0
1860,10.54,0.46,3.04,-0.44,0.18,0.17,0.0
1861,10.09,-1.89,2.97,-0.81,0.05,-0.26,0.0
1862,10.84,-0.6,1.59,-0.81,-0.19,-0.11,0.0
1863,9.01,0.12,2.36,-0.74,0.09,-0.06,0.0
1864,10.7,0.09,2.64,-0.16,0.0,0.3,0.0
1865,9.26,-0.94,2.37,-0.46,0.08,0.06,0.0
1866,10.21,-1.43,2.21,-0.85,0.13,-0.3,0.0
1867,9.59,-0.24,2.5,-0.63,0.13,-0.02,0.0
1868,10.74,0.13,2.57,-0.39,0.1,0.18,0.0
1869,10.8,-1.12,1.3,-0.5,-0.11,-0.01,0.0
1870,9.01,-0.93,2.08,-0.53,0.17,0.02,0.0
1871,10.42,-1.41,2.62,-0.72,0.28,-0.28,0.0
1872,9.48,0.02,2.12,-0.73,0.02,-0.12,0.0
1873,10.56,-0.13,2.52,-0.24,0.1,0.21,0.0
1874,11.0,-0.73,1.14,-0.44,-0.31,-0.04,0.0
1875,9.44,-1.02,2.25,-0.37,0.07,0.07,0.0
1876,10.79,-1.57,2.09,-0.82,0.26,-0.21,0.0
1877,9.56,-0.33,1.56,-0.98,-0.09,0.0,0.0
1878,9.93,0.26,2.66,-0.28,0.32,0.19,0.0
1879,10.8,-1.23,1.3,-0.31,-0.25,0.0,0.0
1880,9.07,-1.19,2.18,-0.26,0.21,0.04,0.0
1881,10.63,-1.51,2.16,-0.87,0.16,-0.25,0.0
1882,9.39,-0.1,1.99,-0.79,-0.03,-0.05,0.0
1883,10.25,0.12,2.46,-0.09,0.39,0.31,0.0
1884,11.07,-0.13,1.67,-0.18,0.16,0.3,0.0
1885,11.0,-1.09,1.65,-0.38,-0.31,-0.03,0.0
1886,9.9,-1.1,2.52,-0.37,-0.03,-0.0,0.0
1887,9.7,-1.43,1.98,-0.8,0.04,-0.24,0.0
1888,9.47,0.27,2.34,-0.94,-0.02,-0.08,0.0
1889,10.9,0.07,2.47,-0.32,0.06,0.29,0.0
1890,11.19,-0.44,1.43,-0.63,-0.35,-0.02,0.0
1891,10.96,-1.4,2.52,-0.79,0.08,-0.27,0.0
1892,9.54,-0.05,2.31,-0.62,0.02,-0.08,0.0
1893,11.0,-0.8,1.17,-0.43,-0.06,-0.08,0.0
1894,9.61,-0.81,2.03,-0.33,0.16,-0.05,0.0
1895,10.46,-1.44,2.93,-0.78,0.15,-0.26,0.0
1896,10.94,-0.04,1.54,-1.16,-0.12,-0.1,0.0
1897,9.42,0.36,2.48,-0.95,0.19,-0.05,0.0
1898,10.86,0.33,2.75,-0.39,0.09,0.28,0.0
1899,11.6,-0.84,1.13,-0.28,-0.37,-0.09,0.0
1900,9.07,-1.04,2.38,-0.35,0.18,0.01,0.0
1901,10.22,-1.48,2.55,-0.69,0.2,-0.25,0.0
1902,10.96,-0.29,1.44,-1.1,-0.27,-0.1,0.0
1903,9.47,0.17,2.55,-0.84,0.11,-0.11,0.0
1904,10.84,0.39,2.23,-0.25,0.27,0.28,0.0
1905,9.71,-1.21,2.09,-0.37,0.18,0.07,0.0
1906,10.38,-1.78,2.41,-0.78,0.05,-0.28,0.0
1907,9.55,0.32,2.42,-0.65,0.12,-0.12,0.0
1908,10.52,0.7,2.85,-0.32,0.26,0.25,0.0
1909,9.48,-0.67,2.18,-0.49,0.25,-0.02,0.0
1910,10.82,-1.17,2.49,-0.82,0.04,-0.28,0.0
1911,10.82,-0.47,1.61,-1.03,-0.29,-0.03,0.0
1912,10.92,0.28,2.62,-0.27,0.03,0.23,0.0
1913,11.31,-0.44,1.04,-0.55,-0.14,-0.03,0.0
1914,9.07,-0.98,1.83,-0.54,0.15,0.06,0.0
1915,9.73,-1.53,2.24,-0.79,0.15,-0.27,0.0
1916,11.45,-0.74,2.1,-0.98,-0.29,-0.01,0.0
1917,10.63,0.06,2.57,-0.22,0.07,0.21,0.0
1918,9.19,-1.14,2.28,-0.65,0.2,0.06,0.0
1919,10.51,-1.65,2.62,-0.85,0.2,-0.27,0.0
1920,11.11,-0.74,1.19,-1.09,-0.37,-0.04,0.0
1921,9.34,-0.45,2.6,-0.55,-0.0,-0.1,0.0
1922,9.95,0.31,2.27,-0.29,0.07,0.18,0.0
1923,9.22,-0.81,2.33,-0.36,0.22,0.09,0.0
1924,10.55,-1.43,3.06,-0.85,0.18,-0.25,0.0
1925,11.36,-0.71,1.55,-1.01,-0.27,-0.06,0.0
1926,9.35,-0.47,2.46,-0.63,0.11,-0.03,0.0
1927,10.57,0.25,2.6,-0.28,0.05,0.13,0.0
1928,9.09,-0.73,1.99,-0.49,0.12,0.06,0.0
1929,10.44,-1.08,2.51,-0.72,0.2,-0.23,0.0
1930,11.06,-0.5,1.66,-0.91,-0.19,-0.05,0.0
1931,9.21,0.01,2.28,-0.64,0.1,-0.05,0.0
1932,10.73,0.15,2.36,-0.23,0.07,0.27,0.0
1933,9.22,-0.71,1.64,-0.4,0.16,0.04,0.0
1934,10.49,-1.02,2.41,-0.73,0.21,-0.34,0.0
1935,11.01,-0.85,1.69,-0.9,-0.15,-0.03,0.0
1936,9.28,0.13,2.34,-0.64,0.1,-0.1,0.0
1937,10.57,0.24,2.69,-0.4,0.1,0.26,0.0
1938,8.7,-0.89,2.08,-0.58,0.23,0.02,0.0
1939,10.35,-1.13,2.82,-0.7,0.09,-0.29,0.0
1940,9.34,0.37,2.04,-0.68,0.18,-0.04,0.0
1941,10.58,0.19,2.72,-0.42,-0.06,0.24,0.0
1942,9.0,-1.24,2.28,-0.62,0.24,0.0,0.0
1943,10.42,-1.63,2.79,-0.81,0.13,-0.35,0.0
1944,9.3,0.14,2.51,-0.56,0.06,-0.04,0.0
1945,11.51,-0.4,1.49,-0.42,-0.35,-0.06,0.0
1946,9.08,-1.09,2.59,-0.46,0.18,0.08,0.0
1947,9.29,-1.46,2.63,-0.7,0.06,-0.24,0.0
1948,10.8,-0.58,1.72,-1.07,-0.19,-0.06,0.0
1949,9.09,-0.15,2.53,-0.76,0.09,-0.09,0.0
1950,10.47,-0.42,2.33,-0.26,-0.0,0.28,0.0
1951,11.34,-0.71,1.22,-0.41,-0.02,-0.01,0.0
1952,9.14,-1.24,2.31,-0.29,0.22,0.0,0.0
1953,10.51,-1.36,2.55,-0.81,0.06,-0.35,0.0
1954,9.29,0.22,2.0,-0.65,0.05,-0.06,0.0
1955,10.72,0.29,3.1,-0.45,0.17,0.18,0.0
1956,8.88,-0.91,2.17,-0.49,0.09,0.04,0.0
1957,10.23,-1.24,2.55,-0.72,0.16,-0.25,0.0
1958,11.16,-0.82,1.53,-0.9,-0.29,-0.09,0.0
1959,9.05,0.12,2.67,-0.5,0.16,-0.04,0.0
1960,10.81,0.08,2.66,-0.22,0.01,0.27,0.0
1961,9.32,-1.05,2.2,-0.61,0.13,0.04,0.0
1962,10.59,-1.3,3.07,-0.64,-0.01,-0.2,0.0
1963,10.8,0.37,3.13,-0.26,-0.24,0.31,0.0
1964,9.0,-1.02,1.92,-0.62,0.37,-0.01,0.0
1965,11.04,-0.71,1.35,-0.48,-0.13,-0.37,0.0
1966,10.94,-0.52,1.75,-0.7,-0.08,-0.13,0.0
1967,9.17,0.35,2.09,-0.62,0.02,-0.09,0.0
1968,10.55,0.25,2.75,-0.24,0.04,0.3,0.0
1969,9.49,-0.78,2.18,-0.63,0.34,-0.05,0.0
1970,10.66,-0.96,2.92,-0.72,0.01,-0.34,0.0
1971,10.52,-0.54,1.77,-0.92,-0.17,-0.16,0.0
1972,9.17,0.48,2.72,-0.76,-0.04,-0.06,0.0
1973,10.58,0.01,2.63,-0.29,-0.02,0.35,0.0
1974,9.37,-0.99,2.11,-0.55,0.32,-0.06,0.0
1975,9.0,0.34,2.84,-0.74,0.05,-0.11,0.0
1976,10.67,0.4,3.11,-0.24,-0.01,0.28,0.0
1977,8.68,-1.07,2.2,-0.54,0.24,-0.01,0.0
1978,10.82,-1.66,2.72,-0.78,0.11,-0.3,0.0
1979,9.31,0.07,2.08,-0.91,0.07,-0.06,0.0
1980,10.46,0.13,2.56,-0.26,0.09,0.23,0.0
1981,10.96,0.01,1.88,-0.48,-0.19,0.05,0.0
1982,9.1,-0.78,1.94,-0.51,0.07,-0.01,0.0
1983,10.64,-1.4,3.05,-0.72,0.23,-0.25,0.0
1984,10.81,-0.35,1.02,-1.03,-0.19,-0.02,0.0
1985,9.7,-0.11,2.46,-0.6,-0.04,-0.01,0.0
1986,10.92,0.41,2.27,-0.27,0.06,0.31,0.0
1987,9.5,-0.91,2.07,-0.43,0.24,-0.01,0.0
1988,10.68,-1.5,2.87,-0.8,0.08,-0.31,0.0
1989,11.12,-0.36,1.18,-1.0,-0.22,-0.07,0.0
1990,9.43,0.0,2.58,-0.68,0.04,-0.09,0.0
1991,10.68,0.19,2.34,-0.16,0.05,0.3,0.0
1992,9.22,-1.06,2.04,-0.62,0.25,-0.0,0.0
1993,10.44,-1.57,2.62,-0.64,0.16,-0.27,0.0
1994,11.29,-0.74,1.4,-1.02,-0.35,-0.14,0.0
1995,9.62,-0.02,2.63,-0.55,0.25,-0.07,0.0
1996,10.63,0.23,2.64,-0.24,0.09,0.29,0.0
1997,9.05,-1.01,2.17,-0.51,0.22,0.02,0.0
1998,10.73,-1.42,3.2,-0.75,0.11,-0.34,0.0
1999,10.85,-0.35,1.74,-0.76,-0.06,-0.03,0.0
2000,9.23,0.23,2.25,-0.71,0.08,-0.03,0.0
2001,10.39,0.15,3.17,-0.37,0.14,0.26,0.0
2002,9.12,-0.97,2.4,-0.56,0.16,-0.03,0.0
2003,10.58,-0.43,1.41,-0.91,-0.13,-0.01,0.0
2004,9.31,0.16,2.03,-0.7,0.09,-0.07,0.0
2005,10.38,0.26,3.15,-0.32,0.07,0.26,0.0
2006,9.17,-0.53,2.18,-0.64,0.16,0.01,0.0
2007,10.14,-1.31,3.02,-0.75,0.18,-0.27,0.0
2008,11.19,-0.29,1.68,-0.92,-0.14,-0.08,0.0
2009,9.01,0.31,2.66,-0.63,0.09,-0.06,0.0
2010,10.56,-0.01,2.48,-0.22,-0.07,0.28,0.0
2011,8.96,-0.8,2.02,-0.48,0.17,-0.02,0.0
2012,10.15,-1.35,2.42,-0.7,0.12,-0.29,0.0
2013,10.78,-0.57,1.06,-0.85,-0.12,0.03,0.0
2014,9.49,-0.07,2.46,-0.66,0.11,-0.06,0.0
2015,10.72,-0.17,2.76,-0.35,0.0,0.3,0.0
2016,9.03,-1.19,2.3,-0.56,0.12,-0.02,0.0
2017,10.37,-1.63,2.72,-0.66,0.14,-0.35,0.0
2018,11.04,-0.42,1.51,-1.06,-0.22,0.01,0.0
2019,9.15,-0.16,2.48,-0.6,0.02,-0.06,0.0
2020,10.92,0.11,2.28,-0.27,-0.02,0.23,0.0
2021,8.89,-1.31,2.09,-0.54,0.23,0.03,0.0
2022,11.06,-1.22,2.47,-0.64,-0.0,-0.28,0.0
2023,11.37,-0.36,1.24,-1.03,-0.22,-0.01,0.0
2024,9.58,-0.08,2.41,-0.76,0.09,-0.12,0.0
2025,10.89,0.08,2.29,-0.42,-0.02,0.2,0.0
2026,11.28,-0.39,1.28,-0.62,-0.06,0.19,0.0
2027,9.05,-1.14,1.94,-0.31,0.09,0.08,0.0
2028,10.67,-1.63,2.22,-0.76,0.02,-0.24,0.0
2029,11.53,-0.11,1.33,-1.16,-0.23,-0.01,0.0
2030,10.73,0.22,2.08,-0.28,0.04,0.25,0.0
2031,11.38,-0.85,1.13,-0.14,-0.2,-0.03,0.0
2032,9.07,-0.95,2.15,-0.16,0.17,0.06,0.0
2033,10.68,-1.21,2.23,-0.85,0.2,-0.35,0.0
2034,10.99,-0.4,0.99,-1.1,-0.13,-0.03,0.0
2035,9.43,-0.42,2.56,-0.78,0.19,-0.04,0.0
2036,11.0,0.17,2.44,-0.36,0.03,0.21,0.0
2037,11.13,-0.89,1.39,-0.16,-0.15,0.04,0.0
2038,9.63,-1.11,2.08,-0.17,0.14,0.07,0.0
2039,11.09,-1.73,2.87,-0.78,0.04,-0.27,0.0
2040,10.91,-0.45,0.83,-1.22,-0.24,0.04,0.0
2041,9.05,-0.56,2.21,-0.88,0.09,-0.01,0.0
2042,10.85,0.15,2.33,-0.28,0.04,0.27,0.0
2043,10.8,-1.07,1.14,-0.17,-0.15,-0.07,0.0
2044,9.04,-1.13,2.17,-0.1,0.08,-0.02,0.0
2045,10.8,-1.04,2.04,-0.78,0.13,-0.26,0.0
2046,10.94,-0.39,1.39,-1.15,-0.05,-0.0,0.0
2047,9.49,-0.21,2.62,-1.04,0.18,-0.09,0.0
2048,10.84,0.07,2.89,-0.33,0.06,0.14,0.0
2049,9.19,-1.2,2.36,-0.33,0.21,0.06,0.0
2050,10.81,-1.5,3.11,-0.65,0.02,-0.21,0.0
2051,11.15,-0.77,1.12,-1.01,-0.19,-0.06,0.0
2052,9.56,0.15,2.52,-0.7,0.23,-0.12,0.0
2053,10.81,0.19,2.57,-0.36,0.01,0.2,0.0
2054,8.97,-0.76,2.14,-0.42,0.04,0.12,0.0
2055,11.11,-0.25,1.2,-1.08,-0.25,-0.02,0.0
2056,9.91,-0.32,2.3,-0.75,0.15,-0.07,0.0
2057,10.51,0.44,2.62,-0.3,0.06,0.19,0.0
2058,9.67,-1.01,1.99,-0.26,0.16,0.08,0.0
2059,10.0,-1.37,2.53,-0.78,0.25,-0.32,0.0
2060,11.04,-0.94,1.28,-0.93,-0.26,-0.09,0.0
2061,9.19,0.04,2.32,-0.69,0.15,-0.12,0.0
2062,10.51,0.43,2.45,-0.33,0.06,0.17,0.0
2063,9.45,-0.8,2.06,-0.44,0.24,0.13,0.0
2064,10.34,-1.53,2.43,-0.77,0.19,-0.27,0.0
2065,11.31,-0.73,0.94,-1.01,-0.21,-0.08,0.0
2066,9.18,0.12,2.14,-0.8,0.12,-0.05,0.0
2067,10.57,0.12,2.13,-0.32,0.03,0.22,0.0
2068,10.16,-0.48,2.3,-0.24,0.2,0.09,0.0
2069,10.32,-1.36,2.49,-0.77,0.16,-0.3,0.0
2070,9.52,0.27,2.49,-0.83,0.04,-0.03,0.0
2071,10.97,0.24,2.0,-0.33,-0.06,0.28,0.0
2072,9.43,-0.78,2.09,-0.38,0.17,0.0,0.0
2073,11.11,-0.91,3.03,-0.78,0.12,-0.32,0.0
2074,10.9,-0.09,1.27,-1.0,-0.16,-0.09,0.0
2075,9.38,0.34,2.51,-0.83,0.14,-0.06,0.0
2076,10.83,0.43,2.53,-0.28,-0.05,0.28,0.0
2077,9.79,-0.41,2.1,-0.49,0.24,0.03,0.0
2078,9.37,0.45,2.0,-0.73,-0.08,-0.09,0.0
2079,11.01,0.43,2.09,-0.22,0.01,0.24,0.0
2080,9.22,-0.66,2.03,-0.5,0.31,0.04,0.0
2081,11.4,-0.35,1.42,-0.44,-0.18,-0.15,0.0
2082,9.22,0.36,1.91,-0.73,-0.0,-0.07,0.0
2083,10.7,0.55,2.26,-0.32,0.02,0.22,0.0
2084,9.07,-0.81,2.09,-0.53,0.21,0.0,0.0
2085,10.75,-1.24,2.64,-0.81,0.1,-0.33,0.0
2086,10.89,-0.11,0.94,-0.9,-0.08,-0.03,0.0
2087,9.36,0.26,2.17,-0.76,0.12,-0.11,0.0
2088,10.42,1.05,3.17,-0.46,0.22,0.25,0.0
2089,8.94,-0.74,2.33,-0.55,0.18,0.02,0.0
2090,10.45,-1.31,2.65,-0.81,0.06,-0.32,0.0
2091,9.19,0.1,1.93,-0.73,-0.11,-0.08,0.0
2092,10.69,0.29,2.65,-0.19,0.21,0.25,0.0
2093,9.01,-0.87,2.47,-0.62,0.27,-0.02,0.0
2094,9.35,0.25,2.53,-0.58,0.08,-0.05,0.0
2095,10.65,0.1,3.2,-0.32,0.04,0.29,0.0
2096,8.65,-0.61,2.27,-0.65,0.2,-0.08,0.0
2097,11.03,-0.08,1.81,-0.8,-0.17,-0.06,0.0
2098,9.1,0.27,2.83,-0.63,0.07,-0.05,0.0
2099,10.57,0.31,3.0,-0.3,-0.01,0.2,0.0
2100,8.95,-0.67,2.21,-0.56,0.22,0.01,0.0
2101,10.87,-0.44,1.49,-0.73,-0.12,-0.08,0.0
2102,9.33,0.5,2.18,-0.56,0.0,-0.11,0.0
2103,10.75,0.01,2.36,-0.18,0.03,0.26,0.0
2104,9.47,-1.04,2.21,-0.58,0.25,0.04,0.0
2105,9.46,0.06,2.49,-0.64,0.02,-0.1,0.0
2106,10.65,0.22,2.57,-0.3,0.02,0.22,0.0
2107,8.94,-0.7,2.01,-0.46,0.27,-0.0,0.0
2108,10.91,-0.32,1.41,-0.93,-0.1,-0.03,0.0
2109,9.34,0.21,2.23,-0.72,0.05,-0.07,0.0
2110,10.51,0.36,3.0,-0.34,0.1,0.28,0.0
2111,9.05,-1.03,2.17,-0.58,0.26,-0.03,0.0
2112,10.94,-0.28,1.53,-0.75,-0.13,-0.02,0.0
2113,9.2,0.06,2.45,-0.49,0.02,-0.07,0.0
2114,10.56,0.2,2.55,-0.25,0.1,0.28,0.0
2115,9.41,-1.08,2.33,-0.6,0.36,0.01,0.0
2116,10.66,-1.33,2.72,-0.77,0.05,-0.35,0.0
2117,11.84,-0.67,1.73,-0.56,-0.27,-0.21,0.0
2118,11.35,-0.27,1.56,-0.81,-0.25,-0.03,0.0
2119,9.31,0.26,2.08,-0.59,0.03,-0.08,0.0
2120,10.83,-0.37,2.1,-0.13,-0.14,0.27,0.0
2121,9.28,-0.95,2.0,-0.57,0.24,-0.01,0.0
2122,9.16,0.03,2.32,-0.6,-0.02,-0.08,0.0
2123,11.28,0.07,1.95,-0.19,-0.09,0.24,0.0
2124,9.88,-1.03,1.61,-0.4,0.31,0.07,0.0
2125,11.05,-0.15,1.69,-0.94,-0.22,-0.0,0.0
2126,9.28,0.12,2.83,-0.65,0.11,-0.07,0.0
2127,10.51,0.0,2.61,-0.29,0.01,0.28,0.0
2128,9.09,-0.8,2.09,-0.61,0.27,-0.07,0.0
2129,11.44,-0.44,1.78,-0.45,-0.14,-0.25,0.0
2130,9.33,0.06,2.5,-0.67,0.01,-0.03,0.0
2131,10.69,-0.07,2.1,-0.23,-0.01,0.3,0.0
2132,9.64,-0.13,1.68,-0.58,0.32,-0.04,0.0
2133,10.03,-1.3,2.53,-0.89,0.06,-0.3,0.0
2134,9.22,0.53,2.62,-0.74,0.01,-0.04,0.0
2135,10.34,0.22,3.18,-0.3,0.05,0.36,0.0
2136,8.84,-0.59,2.0,-0.51,0.11,-0.08,0.0
2137,11.72,-0.79,1.8,-0.48,-0.07,-0.22,0.0
2138,9.0,0.15,2.43,-0.73,-0.01,-0.02,0.0
2139,10.5,-0.04,2.84,-0.39,0.14,0.3,0.0
2140,8.94,-0.93,2.28,-0.51,0.16,-0.05,0.0
2141,10.59,-1.89,2.78,-0.78,0.07,-0.39,0.0
2142,9.7,0.2,2.77,-0.76,0.05,-0.06,0.0
2143,10.76,0.39,2.28,-0.27,-0.1,0.24,0.0
2144,9.56,-0.85,2.02,-0.54,0.24,-0.03,0.0
2145,11.15,-0.45,1.32,-1.14,-0.3,-0.08,0.0
2146,9.62,-0.19,2.34,-0.68,0.07,-0.15,0.0
2147,10.93,0.4,2.08,-0.11,-0.08,0.23,0.0
2148,10.98,-0.76,1.01,-0.49,0.04,0.03,0.0
2149,9.17,-0.74,2.01,-0.44,0.17,0.05,0.0
2150,10.24,-1.24,2.59,-0.8,0.19,-0.36,0.0
2151,11.79,-0.11,1.36,-1.14,-0.34,-0.07,0.0
2152,9.62,-0.19,2.33,-0.78,0.27,-0.08,0.0
2153,10.66,-0.03,2.42,-0.19,0.04,0.24,0.0
2154,8.98,-0.86,2.18,-0.18,0.17,0.03,0.0
2155,10.26,-1.4,2.54,-0.75,0.2,-0.35,0.0
2156,11.81,-0.41,1.49,-1.23,-0.29,-0.07,0.0
2157,10.99,0.08,2.56,-0.27,-0.15,0.27,0.0
2158,8.87,-1.19,2.19,-0.45,0.2,-0.01,0.0
2159,10.72,-1.29,2.35,-0.64,0.03,-0.38,0.0
2160,9.34,-0.49,2.27,-0.9,0.04,-0.07,0.0
2161,10.95,0.0,2.17,-0.25,-0.04,0.27,0.0
2162,9.42,-1.24,1.9,-0.16,0.1,0.1,0.0
2163,10.8,-1.06,2.04,-0.87,0.15,-0.35,0.0
2164,11.01,-0.46,0.76,-0.84,-0.04,-0.07,0.0
2165,9.31,-0.09,1.78,-0.88,0.1,-0.09,0.0
2166,10.74,0.27,1.88,-0.38,-0.0,0.17,0.0
2167,11.28,-0.9,1.12,-0.32,-0.1,0.02,0.0
2168,11.09,-1.48,2.6,-0.74,-0.02,-0.27,0.0
2169,9.31,0.09,2.33,-0.85,0.05,-0.12,0.0
2170,10.77,0.25,2.18,-0.32,-0.07,0.1,0.0
2171,9.28,-0.67,1.97,-0.45,0.29,0.08,0.0
2172,10.73,-1.31,2.22,-0.71,0.09,-0.26,0.0
2173,9.56,-0.18,2.05,-0.91,-0.03,-0.07,0.0
2174,10.46,0.47,2.35,-0.26,0.17,0.07,0.0
2175,11.58,-0.55,1.22,-0.4,-0.12,-0.07,0.0
2176,8.98,-0.72,2.16,-0.53,0.26,0.1,0.0
2177,9.59,-0.69,2.93,-0.74,-0.03,-0.23,0.0
2178,10.41,-1.28,2.78,-0.7,-0.03,-0.29,0.0
2179,11.25,-0.24,1.2,-1.09,-0.3,-0.01,0.0
2180,9.48,-0.38,2.61,-0.88,-0.03,0.01,0.0
2181,10.78,0.2,2.67,-0.32,0.06,0.1,0.0
2182,11.01,-1.14,1.09,-0.31,-0.28,-0.11,0.0
2183,8.83,-0.95,2.22,-0.26,0.06,-0.06,0.0
2184,9.53,-1.44,2.16,-0.71,0.06,-0.22,0.0
2185,10.95,-1.23,2.59,-0.85,-0.12,-0.12,0.0
2186,10.62,-0.51,0.79,-1.23,-0.06,0.02,0.0
2187,9.15,-0.41,2.33,-0.9,0.17,-0.07,0.0
2188,10.16,0.46,2.48,-0.27,0.18,0.2,0.0
2189,9.05,-0.97,1.75,-0.3,0.1,0.0,0.0
2190,10.03,-1.29,2.48,-0.71,0.08,-0.27,0.0
2191,10.87,-0.72,1.28,-1.18,-0.35,-0.01,0.0
2192,10.41,-0.01,2.54,-0.22,0.11,0.12,0.0
2193,11.21,-0.8,1.02,-0.33,-0.17,-0.11,0.0
2194,8.94,-1.19,2.25,-0.34,0.16,0.03,0.0
2195,10.55,-1.5,2.09,-0.82,0.14,-0.3,0.0
2196,11.28,-0.5,1.42,-1.2,-0.39,-0.06,0.0
2197,10.38,0.44,2.32,-0.24,0.08,0.21,0.0
2198,8.73,-1.42,2.43,-0.16,0.2,0.17,0.0
2199,10.86,-0.88,0.94,-1.41,-0.24,-0.13,0.0
2200,9.22,-0.44,2.61,-1.07,0.09,-0.05,0.0
2201,10.26,0.42,2.92,-0.24,0.17,0.25,0.0
2202,9.13,-1.12,2.31,-0.34,0.19,0.11,0.0
2203,10.37,-1.71,2.5,-0.97,0.21,-0.29,0.0
2204,10.91,-0.52,0.6,-1.01,-0.35,-0.09,0.0
2205,9.74,-0.22,2.37,-0.81,0.11,-0.06,0.0
2206,11.02,0.38,1.95,-0.28,0.13,0.26,0.0
2207,11.31,-0.98,1.12,-0.27,-0.31,-0.11,0.0
2208,9.86,-1.29,2.06,-0.2,0.15,0.06,0.0
2209,9.95,-1.58,2.29,-0.78,0.18,-0.18,0.0
2210,11.29,-0.47,1.07,-1.3,-0.4,-0.02,0.0
2211,10.48,0.4,2.05,-0.24,-0.0,0.24,0.0
2212,10.65,-0.3,0.93,-0.37,-0.11,-0.19,0.0
2213,9.05,-0.93,1.72,-0.32,0.08,-0.0,0.0
2214,9.8,-1.38,2.48,-0.72,0.28,-0.25,0.0
2215,10.67,-0.45,1.39,-1.15,-0.16,-0.03,0.0
2216,9.26,-0.45,2.56,-0.88,0.06,-0.0,0.0
2217,10.84,0.25,2.77,-0.29,0.1,0.2,0.0
2218,9.06,-1.11,1.97,-0.3,0.19,0.07,0.0
2219,9.25,-0.23,2.82,-0.97,0.1,-0.09,0.0
2220,10.85,0.5,2.7,-0.29,-0.08,0.15,0.0
2221,11.06,-0.7,0.94,-0.31,-0.19,-0.1,0.0
2222,9.17,-0.88,2.11,-0.31,0.21,0.08,0.0
2223,10.09,-1.51,2.05,-0.77,0.02,-0.2,0.0
2224,10.51,-0.52,1.07,-1.14,-0.17,-0.08,0.0
2225,9.97,0.74,2.32,-0.25,0.09,0.23,0.0
2226,11.37,-0.59,1.04,-0.29,-0.24,-0.18,0.0
2227,9.14,-1.02,1.92,-0.34,0.22,0.03,0.0
2228,10.49,-1.46,2.16,-0.83,0.08,-0.29,0.0
2229,9.52,0.08,2.8,-0.93,0.01,-0.04,0.0
2230,10.71,0.37,2.6,-0.31,-0.06,0.19,0.0
2231,11.0,-0.85,0.95,-0.23,-0.16,-0.09,0.0
2232,9.4,-0.99,2.25,-0.26,0.23,0.1,0.0
2233,10.98,-1.37,2.47,-0.88,0.04,-0.23,0.0
2234,9.88,-0.5,2.51,-0.93,0.02,-0.06,0.0
2235,10.68,-0.86,1.32,-0.18,-0.2,-0.11,0.0
2236,8.99,-0.86,2.33,-0.3,0.22,0.07,0.0
2237,9.98,-1.44,2.52,-0.89,0.1,-0.25,0.0
2238,10.39,-0.81,0.73,-0.72,0.05,0.1,0.0
2239,10.74,-0.09,2.5,-0.28,0.06,0.23,0.0
2240,9.71,-0.92,2.17,-0.35,0.34,0.0,0.0
2241,10.92,-1.09,2.27,-0.85,-0.04,-0.21,0.0
2242,11.02,-0.23,1.5,-0.81,-0.06,-0.01,0.0
2243,9.77,-0.27,2.5,-0.77,0.16,-0.02,0.0
2244,10.48,0.23,2.29,-0.27,0.04,0.14,0.0
2245,8.83,-0.59,1.95,-0.41,0.17,0.03,0.0
2246,10.62,-1.29,2.18,-0.81,-0.03,-0.22,0.0
2247,11.02,-0.36,1.17,-0.79,-0.26,-0.04,0.0
2248,10.87,0.22,2.78,-0.33,0.1,0.17,0.0
2249,8.99,-0.86,1.87,-0.4,0.01,0.03,0.0
2250,10.38,-1.43,2.5,-0.77,0.01,-0.23,0.0
2251,11.26,-0.23,1.46,-0.82,-0.16,-0.0,0.0
2252,9.42,-0.28,2.46,-0.85,0.19,-0.06,0.0
2253,10.94,-0.02,2.43,-0.27,-0.05,0.14,0.0
2254,8.98,-0.77,2.21,-0.45,0.15,0.08,0.0
2255,10.23,-1.45,2.07,-0.74,0.1,-0.24,0.0
2256,9.26,-0.21,2.38,-0.96,0.0,-0.11,0.0
2257,10.81,0.01,2.54,-0.11,0.02,0.21,0.0
2258,8.83,-0.65,1.58,-0.37,0.07,0.1,0.0
2259,10.99,-1.37,2.32,-0.95,0.06,-0.29,0.0
2260,9.15,-0.13,1.87,-0.89,0.02,-0.07,0.0
2261,11.01,0.28,2.44,-0.33,0.13,0.21,0.0
2262,11.7,-0.42,0.96,-0.15,-0.4,-0.07,0.0
2263,8.79,-0.46,1.94,-0.44,0.26,0.19,0.0
2264,10.58,-1.4,1.74,-0.98,0.0,-0.28,0.0
2265,11.06,-0.2,1.0,-0.83,-0.14,-0.0,0.0
2266,9.84,-0.08,2.44,-0.75,0.11,-0.08,0.0
2267,10.82,0.22,2.5,-0.2,0.01,0.15,0.0
2268,9.44,-0.75,2.06,-0.54,0.2,0.16,0.0
2269,11.65,-1.13,1.87,-0.98,-0.08,-0.31,0.0
2270,9.34,-0.33,1.95,-0.8,-0.13,-0.05,0.0
2271,10.74,0.36,2.12,-0.18,0.12,0.23,0.0
2272,11.64,-0.38,0.89,-0.38,-0.35,-0.2,0.0
2273,9.15,-0.91,1.62,-0.4,0.2,0.06,0.0
2274,10.53,-1.4,1.82,-0.9,0.11,-0.29,0.0
2275,11.43,-0.38,0.99,-1.0,-0.28,0.06,0.0
2276,11.01,0.03,1.64,-0.13,-0.07,0.16,0.0
2277,11.36,-0.9,0.89,-0.43,-0.09,-0.02,0.0
2278,9.06,0.17,2.01,-0.92,-0.08,-0.05,0.0
2279,10.93,-0.13,1.85,-0.07,-0.08,0.23,0.0
2280,11.65,-0.67,1.24,-0.5,-0.07,0.04,0.0
2281,10.89,-0.93,0.91,-0.56,-0.16,-0.02,0.0
2282,9.16,-0.43,2.38,-0.57,0.05,-0.08,0.0
2283,10.66,0.18,1.9,-0.29,-0.06,0.1,0.0
2284,11.06,-0.71,0.55,-0.44,0.0,-0.06,0.0
2285,8.99,-0.96,1.39,-0.49,0.11,0.05,0.0
2286,10.2,-1.8,2.29,-0.78,0.01,-0.26,0.0
2287,10.7,-0.71,1.46,-0.73,-0.13,0.04,0.0
2288,9.53,-0.31,2.4,-0.79,0.07,-0.06,0.0
2289,10.49,-0.78,2.12,-0.16,-0.04,0.21,0.0
2290,11.35,-0.47,0.91,-0.65,0.18,-0.08,0.0
2291,10.36,-0.91,1.95,-1.05,-0.19,-0.37,0.0
2292,9.07,-0.73,2.24,-0.66,0.03,0.01,0.0
2293,10.67,0.11,1.95,0.06,0.02,0.2,0.0
2294,11.36,-0.23,1.24,-0.6,-0.17,-0.18,0.0
2295,9.8,-0.53,2.25,-0.62,0.18,0.02,0.0
2296,10.79,-1.25,2.51,-0.86,-0.05,-0.27,0.0
2297,10.7,-0.27,1.08,-0.85,-0.31,-0.02,0.0
2298,9.81,-0.68,2.4,-0.65,0.09,-0.03,0.0
2299,10.84,0.15,2.32,-0.11,0.0,0.17,0.0
2300,10.94,-0.34,1.17,-0.62,-0.1,-0.01,0.0
2301,9.35,-1.09,1.96,-0.52,-0.04,0.12,0.0
2302,10.78,-0.7,1.87,-0.66,0.06,-0.33,0.0
2303,10.59,-0.14,0.59,-0.82,0.05,-0.0,0.0
2304,9.17,-0.18,2.07,-0.81,0.06,-0.08,0.0
2305,10.75,0.25,1.76,-0.18,-0.09,0.12,0.0
2306,11.24,-0.47,0.9,-0.54,-0.24,-0.15,0.0
2307,9.46,-0.79,2.11,-0.5,0.0,0.03,0.0
2308,10.55,-0.88,2.12,-0.72,0.09,-0.33,0.0
2309,9.48,0.06,1.4,-0.88,0.01,0.08,0.0
2310,11.04,0.4,2.38,-0.32,0.01,0.24,0.0
2311,9.54,-1.07,1.83,-0.35,0.06,0.1,0.0
2312,11.26,-1.28,2.08,-0.85,0.02,-0.31,0.0
2313,9.01,0.01,1.77,-0.79,0.02,-0.09,0.0
2314,10.94,0.02,1.67,-0.19,0.0,0.29,0.0
2315,11.98,-0.48,0.87,-0.39,-0.07,-0.1,0.0
2316,8.93,-1.09,1.52,-0.47,0.28,0.07,0.0
2317,10.47,-1.13,1.71,-0.82,0.06,-0.32,0.0
2318,10.74,-0.37,0.57,-0.8,-0.14,-0.02,0.0
2319,9.11,-0.33,1.97,-0.72,0.05,-0.03,0.0
2320,10.82,0.04,2.02,-0.3,0.1,0.15,0.0
2321,11.57,-0.53,0.83,-0.36,-0.3,-0.15,0.0
2322,8.93,-0.88,1.24,-0.43,-0.0,0.11,0.0
2323,10.71,-0.41,1.0,-0.89,0.08,0.08,0.0
2324,9.03,-0.03,1.98,-0.87,0.18,-0.03,0.0
2325,10.93,-0.3,2.17,-0.13,0.18,0.19,0.0
2326,11.07,0.1,1.28,-0.63,-0.17,0.11,0.0
2327,11.67,-0.87,1.1,-0.34,-0.09,-0.16,0.0
2328,8.86,-0.92,2.07,-0.41,0.45,0.07,0.0
2329,10.44,-1.05,1.86,-0.66,-0.13,-0.21,0.0
2330,9.1,-0.39,1.95,-0.82,0.18,0.04,0.0
2331,10.23,-0.12,2.51,-0.38,-0.08,0.09,0.0
2332,11.28,-0.32,1.21,-0.83,-0.03,0.13,0.0
2333,11.01,-0.78,1.37,-0.31,-0.17,-0.08,0.0
2334,9.0,-0.93,2.02,-0.41,0.19,0.12,0.0
2335,10.31,-1.28,2.27,-0.75,-0.06,-0.28,0.0
2336,10.73,-0.23,1.63,-0.88,-0.13,-0.0,0.0
2337,9.47,-0.27,2.55,-0.77,0.18,-0.06,0.0
2338,10.7,-0.01,2.69,-0.29,0.04,0.08,0.0
2339,9.01,-0.91,1.9,-0.35,0.14,0.09,0.0
2340,10.4,-1.39,2.43,-0.65,-0.06,-0.26,0.0
2341,9.19,-0.47,2.33,-0.73,0.08,-0.06,0.0
2342,10.78,0.02,2.72,-0.34,-0.01,0.11,0.0
2343,8.96,-0.73,1.86,-0.45,0.08,0.12,0.0
2344,10.58,-0.19,1.94,-0.96,-0.16,-0.05,0.0
2345,8.99,-0.16,2.17,-0.89,0.0,-0.08,0.0
2346,10.84,-0.14,2.45,-0.3,-0.11,0.18,0.0
2347,11.22,-0.78,0.94,-0.34,-0.1,-0.12,0.0
2348,9.21,-0.72,1.79,-0.31,0.24,0.08,0.0
2349,10.7,-0.95,1.84,-0.94,0.06,-0.32,0.0
2350,10.75,-0.04,1.65,-0.79,-0.11,-0.04,0.0
2351,10.52,-0.22,1.96,-0.79,-0.02,-0.01,0.0
2352,9.75,-0.34,2.2,-0.7,0.08,-0.02,0.0
2353,10.99,-0.27,2.45,-0.29,0.03,0.2,0.0
2354,11.05,-0.71,1.17,-0.4,0.1,-0.09,0.0
2355,9.04,-0.7,1.82,-0.44,0.22,0.08,0.0
2356,11.08,-0.59,1.67,-0.83,-0.18,0.0,0.0
2357,9.22,-0.44,2.41,-0.79,0.16,-0.03,0.0
2358,10.4,0.27,2.47,-0.29,0.06,0.14,0.0
2359,11.6,-0.66,1.19,-0.44,-0.2,-0.14,0.0
2360,9.0,-1.02,2.09,-0.44,0.27,0.09,0.0
2361,10.97,-0.7,2.09,-0.99,-0.16,0.01,0.0
2362,10.46,0.2,2.49,-0.28,-0.05,0.12,0.0
2363,11.41,-1.22,1.41,-0.41,-0.06,-0.12,0.0
2364,8.76,-1.33,2.25,-0.36,0.27,0.07,0.0
2365,10.8,-1.2,1.87,-0.99,-0.15,-0.07,0.0
2366,8.93,-0.6,2.73,-0.87,0.25,-0.04,0.0
2367,10.19,0.4,2.73,-0.23,0.09,0.09,0.0
2368,10.48,-1.35,3.05,-0.72,0.09,-0.21,0.0
2369,8.84,-0.28,2.38,-0.84,0.24,-0.01,0.0
2370,11.28,-0.47,1.76,-0.39,-0.17,0.22,0.0
2371,11.38,-1.04,1.68,-0.51,-0.17,-0.11,0.0
2372,8.89,-1.29,2.68,-0.54,0.24,0.02,0.0
2373,10.73,-1.37,3.46,-0.73,0.08,-0.22,0.0
2374,10.88,-0.67,1.56,-1.14,-0.36,-0.03,0.0
2375,9.01,-0.23,2.71,-0.96,0.1,0.0,0.0
2376,10.73,0.37,2.94,-0.42,-0.03,0.11,0.0
2377,9.53,-1.27,2.3,-0.35,0.17,0.08,0.0
2378,10.38,-1.42,2.57,-0.81,-0.04,-0.19,0.0
2379,11.44,-0.9,1.51,-1.21,-0.49,-0.13,0.0
2380,9.51,-0.57,2.42,-0.72,0.16,-0.06,0.0
2381,9.17,-1.22,1.69,-0.46,0.08,0.12,0.0
2382,9.94,-1.47,2.34,-0.8,0.13,-0.28,0.0
2383,10.59,-0.67,1.07,-1.05,-0.12,-0.07,0.0
2384,9.21,-0.69,2.03,-0.94,0.03,-0.06,0.0
2385,10.61,0.2,2.41,-0.21,0.3,0.18,0.0
2386,10.69,-0.09,1.78,-0.31,-0.09,0.18,0.0
2387,9.14,-1.06,2.01,-0.19,0.27,0.08,0.0
2388,11.26,-0.97,1.2,-1.21,-0.23,-0.1,0.0
2389,10.45,0.36,2.74,-0.23,0.04,0.17,0.0
2390,11.39,-0.42,0.9,-0.38,-0.16,-0.21,0.0
2391,9.03,-0.8,2.0,-0.41,0.2,0.1,0.0
2392,9.78,-1.36,2.39,-0.71,0.27,-0.23,0.0
2393,10.66,-0.95,1.3,-1.14,-0.17,-0.07,0.0
2394,9.13,-1.14,2.06,-0.45,0.15,0.07,0.0
2395,10.82,-1.18,2.45,-0.83,0.21,-0.26,0.0
2396,11.07,-0.63,1.19,-1.07,-0.2,-0.06,0.0
2397,9.74,-0.58,2.2,-0.86,0.11,-0.07,0.0
2398,10.43,0.38,2.48,-0.31,0.12,0.23,0.0
2399,10.78,0.18,2.6,-0.31,0.16,0.23,0.0
2400,8.94,-1.05,2.09,-0.34,0.24,0.05,0.0
2401,9.09,-0.17,2.09,-0.82,0.09,-0.04,0.0
2402,10.68,0.25,2.56,-0.21,0.14,0.15,0.0
2403,11.43,-0.93,1.37,-0.49,-0.1,-0.07,0.0
2404,9.22,-1.31,2.2,-0.42,0.3,0.06,0.0
2405,10.61,-1.65,2.61,-0.75,-0.01,-0.31,0.0
2406,10.47,-0.3,1.04,-1.07,-0.18,-0.03,0.0
2407,9.57,-0.23,2.33,-0.98,-0.0,-0.0,0.0
2408,11.03,0.31,2.71,-0.3,0.17,0.17,0.0
2409,8.89,-1.14,1.78,-0.16,0.01,0.02,0.0
2410,10.76,-1.45,1.78,-0.86,-0.08,-0.21,0.0
2411,10.44,-0.56,1.12,-1.19,-0.27,0.05,0.0
2412,9.31,-0.63,2.14,-0.96,-0.08,0.01,0.0
2413,10.53,0.46,2.59,-0.26,0.21,0.18,0.0
2414,8.94,-1.06,2.0,-0.34,0.18,0.03,0.0
2415,9.43,-1.51,2.16,-0.69,0.14,-0.22,0.0
2416,11.35,-0.81,1.3,-1.08,-0.32,-0.1,0.0
2417,9.11,-0.23,2.35,-0.91,0.12,-0.07,0.0
2418,10.81,0.16,2.47,-0.2,0.03,0.19,0.0
2419,9.38,-0.78,2.11,-0.39,0.09,0.07,0.0
2420,9.48,-1.35,1.96,-0.75,0.08,-0.14,0.0
2421,10.98,-0.45,0.73,-1.24,-0.34,-0.05,0.0
2422,9.56,-0.53,2.37,-0.97,-0.02,-0.01,0.0
2423,10.84,0.23,1.87,-0.17,0.12,0.25,0.0
2424,11.37,-1.02,0.6,-0.26,-0.21,-0.1,0.0
2425,9.65,-1.1,1.98,-0.2,0.16,0.05,0.0
2426,10.21,-1.73,1.97,-0.87,0.13,-0.21,0.0
2427,10.75,-0.41,1.17,-1.24,-0.17,0.0,0.0
2428,9.28,-0.34,2.32,-1.01,0.09,-0.0,0.0
2429,10.57,0.43,2.21,-0.24,0.22,0.23,0.0
2430,9.46,-1.26,2.24,-0.3,0.11,0.03,0.0
2431,10.67,-1.39,2.18,-0.78,0.07,-0.24,0.0
2432,9.15,-0.07,2.17,-1.04,0.11,-0.03,0.0
2433,10.79,-0.21,2.59,-0.21,0.3,0.25,0.0
2434,10.88,-0.96,1.0,-0.33,-0.24,-0.12,0.0
2435,8.8,-1.03,2.19,-0.33,0.13,0.05,0.0
2436,9.81,-1.75,2.13,-0.84,0.14,-0.2,0.0
2437,11.17,-0.64,0.94,-1.2,-0.22,-0.09,0.0
2438,10.33,-0.31,2.47,-1.09,0.01,-0.06,0.0
2439,11.01,0.11,2.87,-0.25,0.04,0.23,0.0
2440,10.55,-0.85,1.63,-0.19,-0.25,-0.13,0.0
2441,9.09,-1.02,2.1,-0.28,-0.04,0.02,0.0
2442,10.05,-1.38,2.09,-0.74,0.02,-0.18,0.0
2443,9.97,-0.25,2.59,-0.9,0.07,-0.03,0.0
2444,10.44,0.6,2.64,-0.3,0.24,0.25,0.0
2445,9.06,-0.96,1.68,-0.22,-0.08,0.03,0.0
2446,10.24,-1.51,1.63,-0.84,0.18,-0.24,0.0
2447,9.34,-0.18,2.28,-1.09,0.09,-0.01,0.0
2448,10.72,0.4,2.77,-0.3,0.17,0.26,0.0
2449,11.35,-0.7,0.91,-0.26,-0.24,-0.09,0.0
2450,8.89,-0.94,1.93,-0.32,0.16,0.06,0.0
2451,10.64,-1.52,1.86,-0.8,0.14,-0.25,0.0
2452,11.31,-0.47,1.01,-1.2,-0.21,-0.01,0.0
2453,9.54,-0.45,2.29,-0.89,0.16,0.03,0.0
2454,10.64,0.31,2.64,-0.21,0.31,0.28,0.0
2455,9.37,-1.11,1.91,-0.23,0.13,-0.03,0.0
2456,10.82,-0.93,3.07,-0.93,0.08,-0.24,0.0
2457,10.88,-0.63,0.79,-1.13,-0.23,-0.02,0.0
2458,9.24,-0.04,2.42,-1.04,0.05,-0.02,0.0
2459,10.69,0.33,2.59,-0.31,0.2,0.27,0.0
2460,11.27,-0.14,1.09,-0.21,-0.14,-0.1,0.0
2461,10.05,-0.82,2.08,-0.35,0.3,-0.02,0.0
2462,9.05,-0.03,1.64,-0.97,-0.32,-0.02,0.0
2463,9.16,-1.34,2.21,-0.29,0.04,-0.02,0.0
2464,10.08,-2.04,2.15,-0.95,0.15,-0.34,0.0
2465,10.6,-1.54,1.12,-0.95,-0.09,-0.11,0.0
2466,8.94,-0.47,1.66,-0.85,0.17,-0.03,0.0
2467,10.3,0.51,2.25,-0.0,-0.06,0.22,0.0
2468,9.54,-0.93,2.2,-0.54,0.22,0.03,0.0
2469,10.5,-1.73,2.6,-0.83,0.1,-0.23,0.0
2470,10.79,-0.66,1.33,-1.17,-0.13,-0.02,0.0
2471,9.2,-0.44,2.23,-0.83,0.04,-0.04,0.0
2472,10.4,0.57,2.32,-0.26,0.13,0.23,0.0
2473,9.23,-1.03,2.02,-0.44,0.12,-0.01,0.0
2474,9.9,-1.78,2.48,-0.85,0.19,-0.25,0.0
2475,10.96,-0.81,1.04,-1.06,-0.2,-0.09,0.0
2476,9.23,-0.09,2.4,-0.86,0.03,-0.04,0.0
2477,10.99,0.26,2.63,-0.17,0.14,0.33,0.0
2478,10.79,-0.79,1.02,-0.44,-0.03,-0.04,0.0
2479,9.12,-0.99,2.14,-0.5,0.21,0.08,0.0
2480,11.07,-1.07,1.32,-1.08,-0.28,0.0,0.0
2481,11.25,0.14,2.44,-0.16,0.25,0.29,0.0
2482,9.29,-0.91,1.75,-0.39,-0.01,-0.1,0.0
2483,9.52,-1.7,2.57,-0.79,0.0,-0.26,0.0
2484,10.59,-1.06,1.3,-1.02,-0.24,-0.04,0.0
2485,9.23,-0.35,1.91,-0.89,0.08,-0.03,0.0
2486,10.35,0.42,2.21,-0.07,0.2,0.26,0.0
2487,9.11,-0.85,2.23,-0.4,0.2,0.03,0.0
2488,10.23,-1.56,2.49,-0.87,0.07,-0.32,0.0
2489,10.94,-0.68,1.41,-1.14,-0.29,-0.03,0.0
2490,9.05,-0.26,2.55,-0.88,0.13,-0.05,0.0
2491,10.64,0.0,2.67,-0.13,0.05,0.24,0.0
2492,10.84,-0.63,1.32,-0.28,-0.13,0.05,0.0
2493,9.81,-0.63,2.45,-0.3,0.17,0.08,0.0
2494,9.37,-0.06,2.27,-0.98,-0.01,-0.0,0.0
2495,10.9,0.17,2.62,-0.24,0.02,0.25,0.0
2496,9.22,-0.86,2.33,-0.46,0.22,0.12,0.0
2497,9.5,-1.51,2.69,-0.72,0.1,-0.25,0.0
2498,9.3,-0.09,2.36,-0.81,0.04,-0.04,0.0
2499,10.63,0.21,2.68,-0.15,0.09,0.3,0.0
2500,9.06,-0.6,2.34,-0.46,0.27,0.06,0.0
2501,10.2,-1.51,2.84,-0.85,0.15,-0.31,0.0
2502,10.55,-1.06,1.63,-1.01,-0.2,-0.04,0.0
2503,9.18,0.22,2.26,-0.83,0.04,-0.02,0.0
2504,10.69,0.13,3.11,-0.16,0.23,0.31,0.0
2505,9.09,-1.2,2.38,-0.41,0.15,0.13,0.0
2506,10.48,-1.99,3.56,-0.77,-0.1,-0.24,0.0
2507,10.65,-0.9,1.6,-0.99,-0.31,-0.1,0.0
2508,9.09,-0.28,2.48,-0.65,0.05,-0.01,0.0
2509,10.91,0.17,2.63,-0.07,0.24,0.3,0.0
2510,11.0,-0.93,1.14,-0.28,-0.03,-0.16,0.0
2511,9.27,-0.99,2.45,-0.43,0.3,0.03,0.0
2512,10.06,-1.64,3.63,-0.83,0.06,-0.33,0.0
2513,9.2,0.18,2.3,-0.91,0.09,-0.01,0.0
2514,10.26,0.63,2.94,-0.29,-0.03,0.15,0.0
2515,9.2,-0.45,3.0,-0.61,0.27,0.16,0.0
2516,10.7,-1.09,3.09,-0.93,-0.04,-0.25,0.0
2517,9.29,-0.78,2.71,-0.95,-0.02,-0.04,0.0
2518,10.04,0.15,3.39,-0.28,0.16,0.18,0.0
2519,9.12,-0.88,2.45,-0.25,-0.01,0.05,0.0
2520,9.93,-1.68,2.82,-0.82,0.17,-0.22,0.0
2521,9.18,-0.32,2.65,-0.89,0.03,0.01,0.0
2522,10.31,0.3,3.48,-0.25,0.29,0.19,0.0
2523,8.88,-0.75,3.15,-0.39,0.11,0.04,0.0
2524,9.93,-1.76,2.93,-0.9,0.14,-0.19,0.0
2525,9.29,-0.27,2.58,-0.71,-0.09,-0.1,0.0
2526,11.28,-0.4,1.84,-0.43,-0.15,-0.13,0.0
2527,8.77,-0.62,3.02,-0.58,0.23,-0.04,0.0
2528,10.14,-1.79,3.45,-0.74,-0.08,-0.24,0.0
2529,10.29,-0.85,1.53,-1.09,-0.07,-0.05,0.0
2530,10.27,0.17,3.22,-0.37,0.25,0.29,0.0
2531,10.99,-0.1,2.6,-0.49,0.07,0.24,0.0
2532,11.05,-0.7,1.45,-0.32,-0.36,-0.09,0.0
2533,8.78,-0.83,2.15,-0.51,0.25,0.13,0.0
2534,10.02,-1.81,2.46,-0.98,0.12,-0.29,0.0
2535,10.52,-0.85,1.17,-0.94,-0.21,-0.07,0.0
2536,9.19,-0.32,2.37,-0.72,0.12,-0.07,0.0
2537,11.01,0.2,2.33,-0.44,0.14,0.26,0.0
2538,9.36,-1.02,2.44,-0.38,0.15,0.09,0.0
2539,9.76,-1.59,2.45,-0.82,0.18,-0.28,0.0
2540,10.01,-0.05,3.08,-0.84,-0.01,-0.03,0.0
2541,10.32,0.22,2.95,-0.41,0.04,0.2,0.0
2542,9.02,-0.79,2.27,-0.28,0.07,0.14,0.0
2543,9.5,-0.0,2.37,-0.75,0.07,-0.0,0.0
2544,10.14,0.4,2.7,-0.29,0.24,0.37,0.0
2545,11.23,0.15,2.27,-0.4,0.11,0.34,0.0
2546,9.44,-0.85,2.53,-0.2,0.12,0.03,0.0
2547,10.19,-1.42,2.26,-0.81,0.04,-0.2,0.0
2548,9.49,0.48,2.01,-0.8,-0.05,0.01,0.0
2549,11.06,0.03,2.28,-0.44,0.09,0.27,0.0
2550,10.92,-0.73,1.81,-0.29,-0.31,-0.09,0.0
2551,8.68,-0.64,2.83,-0.39,0.21,0.06,0.0
2552,9.46,-1.31,2.6,-0.74,-0.04,-0.23,0.0
2553,10.25,-0.2,1.28,-0.92,-0.23,-0.06,0.0
2554,9.26,0.05,2.08,-0.86,-0.06,-0.04,0.0
2555,9.21,-0.82,2.64,-0.37,0.12,0.1,0.0
2556,10.47,-1.34,2.5,-0.93,0.04,-0.3,0.0
2557,9.58,-0.32,2.58,-0.9,-0.03,-0.01,0.0
2558,10.86,0.08,2.65,-0.22,0.12,0.25,0.0
2559,9.02,-0.9,2.37,-0.31,0.12,0.09,0.0
2560,10.7,-1.57,2.57,-0.86,0.12,-0.26,0.0
2561,10.19,-0.4,1.18,-1.0,-0.13,-0.0,0.0
2562,9.42,0.14,2.15,-0.95,-0.05,-0.01,0.0
2563,11.14,0.25,2.24,-0.44,0.04,0.13,0.0
2564,9.22,-0.59,2.09,-0.37,0.14,0.09,0.0
2565,10.7,-1.12,3.03,-0.89,0.14,-0.25,0.0
2566,9.3,-0.34,2.06,-0.82,-0.04,0.0,0.0
2567,10.59,0.19,2.93,-0.13,0.3,0.27,0.0
2568,9.09,-0.92,2.49,-0.41,0.16,0.05,0.0
2569,10.01,-1.7,2.86,-0.84,0.12,-0.28,0.0
2570,9.45,-0.44,2.3,-0.83,-0.0,-0.08,0.0
2571,10.42,0.73,3.0,-0.2,0.19,0.19,0.0
2572,11.26,-0.55,1.43,-0.42,-0.23,-0.07,0.0
2573,9.16,-0.61,2.79,-0.49,0.18,0.12,0.0
2574,9.76,-1.56,2.61,-0.86,0.07,-0.2,0.0
2575,10.26,-0.4,1.3,-1.04,-0.2,-0.03,0.0
2576,9.23,-0.1,1.83,-0.97,-0.07,0.01,0.0
2577,10.47,0.46,2.96,-0.21,0.24,0.27,0.0
2578,9.04,-0.97,2.21,-0.28,0.21,0.08,0.0
2579,10.64,-1.57,2.28,-0.89,0.14,-0.26,0.0
2580,10.89,-0.6,1.37,-0.96,-0.31,-0.1,0.0
2581,9.22,0.17,2.71,-0.66,0.11,-0.07,0.0
2582,10.59,0.71,3.3,-0.25,0.16,0.24,0.0
2583,9.19,-0.92,2.03,-0.59,0.19,0.15,0.0
2584,11.07,-1.17,1.52,-0.75,-0.33,-0.2,0.0
2585,9.11,-0.05,2.3,-0.67,0.11,-0.14,0.0
2586,9.9,0.41,2.69,-0.15,-0.05,0.14,0.0
2587,9.11,-0.8,2.11,-0.55,0.1,0.08,0.0
2588,10.92,-0.73,1.07,-1.1,-0.26,-0.06,0.0
2589,9.63,-0.31,2.6,-0.9,0.06,0.0,0.0
2590,10.47,0.3,3.13,-0.21,0.11,0.27,0.0
2591,9.09,-0.92,2.27,-0.24,0.13,0.09,0.0
2592,10.28,-1.53,1.99,-0.91,0.18,-0.28,0.0
2593,9.69,-0.23,1.5,-0.84,-0.07,-0.09,0.0
2594,9.98,0.64,2.93,-0.34,-0.04,0.26,0.0
2595,8.88,-0.6,2.07,-0.52,0.11,0.13,0.0
2596,10.09,-1.58,3.14,-0.76,0.1,-0.26,0.0
2597,9.21,-0.34,2.67,-0.79,0.07,0.01,0.0
2598,10.71,0.18,3.05,-0.22,0.09,0.28,0.0
2599,9.17,-0.92,1.95,-0.39,0.08,0.09,0.0
2600,9.78,-1.54,2.45,-0.79,0.01,-0.24,0.0
2601,9.07,-0.13,2.23,-0.91,0.07,-0.04,0.0
2602,10.58,0.34,3.1,-0.31,0.08,0.15,0.0
2603,8.92,-0.58,2.53,-0.43,0.22,0.11,0.0
2604,9.51,-0.04,2.33,-0.79,-0.05,-0.08,0.0
2605,10.16,0.24,3.05,-0.22,-0.04,0.33,0.0
2606,11.03,-0.79,1.32,-0.33,-0.12,-0.1,0.0
2607,9.0,-0.85,2.27,-0.45,0.16,0.02,0.0
2608,9.71,-1.65,2.62,-0.82,0.02,-0.27,0.0
2609,10.15,-0.58,0.89,-1.04,-0.22,-0.07,0.0
2610,9.4,-0.28,1.84,-0.96,-0.09,-0.06,0.0
2611,10.2,0.77,2.71,-0.19,0.05,0.24,0.0
2612,10.89,-0.56,1.05,-0.3,-0.14,-0.04,0.0
2613,9.38,-0.51,2.16,-0.36,0.19,0.13,0.0
2614,11.03,-0.81,1.05,-1.16,-0.26,-0.08,0.0
2615,9.35,-0.43,2.32,-0.88,0.09,-0.01,0.0
2616,10.82,0.23,2.41,-0.18,0.23,0.27,0.0
2617,9.21,-1.05,1.57,-0.19,-0.02,0.01,0.0
2618,9.45,-0.17,2.78,-0.44,0.01,0.05,0.0
2619,10.8,0.22,0.73,-0.31,0.07,0.23,0.0
2620,8.88,-1.06,2.81,-0.46,0.11,0.11,0.0
2621,9.85,-1.74,2.59,-0.92,0.03,-0.34,0.0
2622,10.88,0.23,2.64,-0.41,0.04,0.24,0.0
2623,10.71,-0.73,1.07,-0.41,0.09,-0.01,0.0
2624,9.17,-0.87,1.99,-0.55,0.25,0.09,0.0
2625,9.21,-0.79,2.26,-0.92,-0.1,0.05,0.0
2626,10.53,-0.04,2.38,-0.07,0.23,0.29,0.0
2627,8.69,-1.39,2.41,-0.38,0.13,-0.0,0.0
2628,9.19,-0.46,3.13,-0.9,0.01,-0.06,0.0
2629,10.65,0.05,3.04,-0.21,0.13,0.21,0.0
2630,8.98,-1.14,2.15,-0.43,0.12,0.05,0.0
2631,9.52,-1.56,2.76,-0.71,0.14,-0.24,0.0
2632,10.36,-0.55,1.04,-1.13,-0.25,-0.04,0.0
2633,9.51,-0.42,2.8,-0.73,-0.01,-0.06,0.0
2634,10.72,0.01,2.75,-0.21,0.27,0.22,0.0
2635,10.98,-0.78,1.19,-0.24,-0.24,-0.09,0.0
2636,9.23,-1.01,2.34,-0.3,0.12,0.02,0.0
2637,10.32,-1.67,1.87,-0.9,0.03,-0.22,0.0
2638,10.51,0.08,2.79,-0.18,0.24,0.28,0.0
2639,8.64,-0.21,2.49,-0.31,0.07,0.01,0.0
2640,9.61,0.18,2.82,-0.87,-0.06,0.01,0.0
2641,10.79,0.88,2.74,-0.22,0.16,0.26,0.0
2642,10.74,-0.66,1.39,-0.4,-0.09,-0.08,0.0
2643,9.09,-0.52,2.57,-0.55,0.01,-0.02,0.0
2644,9.85,-1.11,3.13,-0.84,0.12,-0.28,0.0
2645,9.07,0.15,2.87,-0.83,0.08,-0.11,0.0
2646,10.54,0.58,3.27,-0.28,0.05,0.1,0.0
2647,11.67,0.04,2.03,-0.45,-0.15,-0.02,0.0
2648,8.89,-0.49,2.46,-0.45,0.14,0.03,0.0
2649,10.81,-0.92,2.89,-0.85,0.01,-0.23,0.0
2650,9.1,0.2,2.41,-0.94,-0.08,-0.02,0.0
2651,10.69,0.66,2.89,-0.17,0.11,0.17,0.0
2652,8.95,-0.15,2.71,-0.58,0.23,-0.02,0.0
2653,9.13,0.17,2.24,-0.79,0.0,-0.06,0.0
2654,10.78,0.59,2.8,-0.27,0.12,0.15,0.0
2655,9.12,-0.43,2.49,-0.73,0.03,0.01,0.0
2656,9.22,-0.12,3.03,-0.82,-0.05,-0.04,0.0
2657,10.85,0.58,3.3,-0.3,0.16,0.13,0.0
2658,9.11,-0.49,2.28,-0.47,-0.01,0.01,0.0
2659,10.6,-0.97,3.38,-0.86,0.08,-0.22,0.0
2660,9.35,-0.35,2.73,-0.81,-0.16,-0.06,0.0
2661,10.9,0.26,2.34,-0.28,0.05,0.28,0.0
2662,10.11,-1.32,2.08,-0.85,0.23,-0.23,0.0
2663,10.06,-0.62,1.01,-1.18,-0.12,0.03,0.0
2664,9.18,-0.22,2.34,-0.85,-0.07,0.0,0.0
2665,10.82,-0.28,2.47,-0.12,0.37,0.28,0.0
2666,10.79,-1.08,1.68,-0.4,-0.3,-0.04,0.0
2667,9.99,-2.11,2.85,-0.73,-0.13,-0.27,0.0
2668,11.21,-0.29,3.03,-0.08,0.16,0.4,0.0
2669,10.69,-1.0,1.72,-0.21,-0.17,-0.08,0.0
2670,9.35,-1.08,2.19,-0.23,0.1,-0.04,0.0
2671,9.86,-1.83,2.56,-0.92,0.16,-0.31,0.0
2672,11.08,-1.1,1.12,-1.23,-0.17,-0.05,0.0
2673,8.93,-0.33,2.18,-0.95,0.13,0.04,0.0
2674,10.65,0.42,2.77,-0.17,0.3,0.35,0.0
2675,11.05,-0.95,1.92,-0.33,-0.28,-0.03,0.0
2676,9.43,-1.61,2.61,-1.08,0.09,-0.36,0.0
2677,9.38,-0.28,3.04,-0.9,0.06,-0.03,0.0
2678,10.68,-0.27,2.64,-0.12,0.28,0.47,0.0
2679,10.86,-0.72,1.54,-0.23,-0.25,-0.14,0.0
2680,9.62,-0.8,2.46,-0.27,0.13,0.01,0.0
2681,9.6,-1.76,1.96,-0.92,-0.22,-0.29,0.0
2682,9.46,0.03,2.6,-0.53,0.01,-0.01,0.0
2683,10.63,0.34,2.97,-0.14,0.09,0.45,0.0
2684,9.31,-1.08,2.23,-0.46,0.05,0.02,0.0
2685,10.01,-2.04,2.45,-0.78,0.12,-0.29,0.0
2686,9.44,-0.11,2.71,-0.8,0.03,-0.1,0.0
2687,10.7,0.57,3.18,-0.25,-0.12,0.18,0.0
2688,10.95,-0.52,1.0,-0.48,-0.12,-0.06,0.0
2689,9.63,-0.22,1.52,-0.63,0.15,0.03,0.0
2690,10.46,-1.22,3.12,-0.8,0.09,-0.28,0.0
2691,10.64,-0.29,1.94,-0.85,-0.25,-0.02,0.0
2692,10.81,0.23,1.83,-0.19,-0.07,0.19,0.0
2693,11.48,-0.28,0.75,-0.54,-0.26,-0.14,0.0
2694,9.06,-1.24,1.84,-0.53,0.05,0.01,0.0
2695,10.36,0.41,0.18,-0.91,0.13,-0.03,0.0
2696,9.59,0.51,1.06,-0.91,0.1,-0.05,0.0
