,AccelX,AccelY,AccelZ,GyroX,GyroY,GyroZ,Mode
0,9.56,1.1,2.58,-0.94,0.16,-0.16,0.0
1,9.96,0.33,3.24,-0.86,0.47,0.03,0.0
2,10.19,0.05,4.54,-0.64,-0.03,0.09,0.0
3,9.73,-0.05,4.26,-0.48,0.17,0.09,0.0
4,9.43,-0.28,4.74,-0.57,-0.02,0.07,0.0
5,9.94,0.81,3.75,-0.47,-0.06,-0.03,0.0
6,9.72,-0.03,3.9,-0.57,0.03,0.06,0.0
7,9.87,0.76,3.71,-0.57,0.0,-0.02,0.0
8,9.39,-0.09,4.37,-0.64,0.08,-0.06,0.0
9,9.75,0.62,3.51,-0.54,-0.04,0.05,0.0
10,9.93,0.42,3.29,-0.53,-0.01,0.05,0.0
11,9.81,0.42,3.17,-0.54,-0.0,0.04,0.0
12,9.7,0.66,3.21,-0.54,0.06,0.02,0.0
13,9.03,0.73,4.09,-0.88,-0.12,-0.13,0.0
14,9.89,0.62,3.22,-0.77,0.01,-0.04,0.0
15,10.86,0.6,3.66,-0.6,0.42,0.08,0.0
16,11.04,0.56,4.05,-0.46,0.18,-0.11,0.0
17,8.79,0.6,4.15,-0.43,0.21,0.07,0.0
18,9.73,-0.2,4.0,-0.75,0.06,-0.09,0.0
19,8.94,0.52,4.61,-0.73,0.21,-0.22,0.0
20,9.25,-0.01,5.05,-0.78,0.13,-0.15,0.0
21,8.74,0.29,4.32,-0.54,-0.01,-0.11,0.0
22,10.22,0.82,4.85,-0.47,0.08,0.01,0.0
23,8.9,0.91,3.93,-0.84,-0.02,-0.04,0.0
24,10.41,0.56,4.5,-0.88,-0.36,-0.17,0.0
25,10.69,0.9,4.3,-0.46,0.24,0.05,0.0
26,9.02,0.35,4.24,-0.49,0.22,0.02,0.0
27,8.98,0.67,4.14,-0.41,0.08,0.03,0.0
28,8.81,0.51,4.15,-0.98,0.06,-0.19,0.0
29,10.15,-0.18,4.9,-0.98,0.08,-0.21,0.0
30,10.2,0.57,4.49,-0.68,0.29,-0.13,0.0
31,8.94,0.08,4.55,-0.66,-0.07,-0.04,0.0
32,9.02,0.68,4.6,-0.83,0.25,-0.06,0.0
33,9.9,0.62,4.76,-0.85,-0.28,-0.19,0.0
34,10.31,1.03,4.76,-0.53,0.2,0.03,0.0
35,8.68,0.62,4.58,-0.64,0.13,-0.06,0.0
36,9.33,0.27,4.08,-0.48,0.29,0.0,0.0
37,8.72,0.58,4.6,-0.61,0.12,0.01,0.0
38,9.66,-0.05,4.82,-0.75,-0.02,-0.07,0.0
39,8.86,0.28,4.65,-0.72,-0.03,-0.03,0.0
40,8.43,0.16,4.73,-0.58,0.2,0.01,0.0
41,8.93,0.17,4.54,-0.64,-0.08,0.0,0.0
42,8.74,0.5,4.54,-0.54,0.01,-0.06,0.0
43,9.37,0.2,3.73,-0.63,0.36,-0.05,0.0
44,8.75,0.83,4.33,-0.53,0.07,0.02,0.0
45,9.01,0.09,5.08,-0.7,0.28,-0.0,0.0
46,10.28,0.68,4.48,-0.66,0.23,-0.09,0.0
47,8.29,0.13,4.16,-0.67,0.06,-0.01,0.0
48,9.27,0.09,4.41,-0.67,0.09,-0.01,0.0
49,9.02,0.72,4.62,-0.58,0.14,0.01,0.0
50,10.2,1.0,5.08,-0.6,0.17,-0.04,0.0
51,9.03,0.72,4.29,-0.73,0.19,-0.18,0.0
52,8.51,1.16,5.01,-0.35,0.13,0.05,0.0
53,9.15,0.25,4.77,-0.62,-0.27,0.01,0.0
54,9.25,-0.01,4.91,-0.81,0.14,-0.07,0.0
55,10.7,0.36,4.98,-0.64,0.2,-0.06,0.0
56,9.14,-0.11,4.35,-0.54,0.27,0.05,0.0
57,10.58,1.26,5.1,-0.39,0.19,0.11,0.0
58,8.62,0.44,4.36,-0.48,0.2,-0.02,0.0
59,8.72,1.2,4.21,-0.47,0.04,0.04,0.0
60,9.66,-0.17,4.59,-0.97,-0.09,-0.16,0.0
61,8.9,0.45,4.96,-0.63,0.33,-0.05,0.0
62,10.92,0.8,4.81,-0.69,0.3,-0.15,0.0
63,8.17,0.5,4.14,-0.76,0.13,-0.13,0.0
64,8.64,0.56,4.73,-0.77,-0.07,-0.01,0.0
65,10.2,0.8,4.9,-0.61,0.32,-0.02,0.0
66,9.41,0.4,4.54,-0.54,0.04,-0.09,0.0
67,8.45,1.05,4.56,-0.5,0.05,-0.02,0.0
68,9.66,-0.02,4.44,-0.81,-0.11,-0.28,0.0
69,8.45,0.32,4.6,-0.84,-0.12,-0.16,0.0
70,10.11,0.57,5.51,-0.57,0.07,-0.02,0.0
71,10.75,0.57,4.88,-0.59,0.24,0.03,0.0
72,8.79,0.51,4.58,-0.78,0.09,-0.06,0.0
73,10.44,0.78,5.19,-0.47,0.41,0.05,0.0
74,8.88,0.6,3.92,-0.6,0.28,-0.01,0.0
75,8.74,0.51,4.87,-0.49,-0.22,0.37,0.0
76,9.7,-0.12,4.27,-0.84,0.01,-0.15,0.0
77,9.7,-0.28,4.83,-0.79,0.06,-0.17,0.0
78,10.5,-0.02,5.09,-0.53,0.25,-0.07,0.0
79,8.29,-0.05,4.62,-0.74,-0.04,-0.02,0.0
80,11.34,0.58,4.67,-0.29,0.2,0.06,0.0
81,8.75,0.46,4.07,-0.54,0.0,0.06,0.0
82,9.27,-0.04,4.14,-0.93,0.0,-0.11,0.0
83,9.59,-0.19,5.14,-0.86,0.03,-0.1,0.0
84,10.96,0.86,4.42,-0.42,0.29,-0.09,0.0
85,9.88,0.54,5.23,-0.37,0.03,0.05,0.0
86,11.55,0.12,4.9,-0.46,0.25,0.01,0.0
87,8.49,0.73,3.94,-0.5,0.03,0.03,0.0
88,10.0,-0.33,4.43,-0.88,-0.01,-0.11,0.0
89,9.42,0.19,5.18,-0.64,0.01,-0.05,0.0
90,11.61,1.08,4.9,-0.36,0.22,0.07,0.0
91,8.57,0.67,3.62,-0.45,-0.17,-0.0,0.0
92,9.06,0.78,3.48,-0.45,-0.1,-0.03,0.0
93,10.78,0.96,5.2,-0.6,0.2,0.03,0.0
94,11.43,-0.5,3.94,-0.54,-0.35,0.09,0.0
95,8.67,1.18,3.69,-0.28,-0.03,0.11,0.0
96,9.93,-0.13,4.0,-0.78,-0.12,0.03,0.0
97,9.0,0.42,3.71,-0.7,-0.04,0.06,0.0
98,9.58,-0.26,4.49,-0.78,0.23,-0.06,0.0
99,11.65,1.07,4.9,-0.58,0.14,-0.15,0.0
100,8.76,0.06,3.58,-0.54,-0.04,0.0,0.0
101,8.94,1.35,4.46,-0.57,0.21,-0.03,0.0
102,10.93,0.51,5.19,-0.53,0.21,0.1,0.0
103,11.74,-0.09,4.01,-0.64,-0.12,0.02,0.0
104,8.61,0.63,4.11,-0.42,0.03,0.01,0.0
105,9.81,-0.16,4.04,-0.76,-0.09,-0.02,0.0
106,9.42,0.55,4.96,-0.65,0.08,-0.03,0.0
107,9.99,0.2,4.99,-0.65,0.1,0.01,0.0
108,11.05,1.05,5.04,-0.53,0.08,-0.1,0.0
109,12.44,0.22,3.72,-0.98,-0.42,-0.24,0.0
110,9.51,1.09,3.34,-0.33,-0.11,-0.05,0.0
111,9.56,1.39,4.55,-0.38,0.22,-0.12,0.0
112,11.76,0.85,4.83,-0.62,0.32,0.11,0.0
113,11.7,0.28,3.99,-0.59,-0.26,0.13,0.0
114,8.52,0.83,3.65,-0.41,0.11,0.01,0.0
115,10.25,0.07,3.9,-0.81,-0.14,-0.01,0.0
116,10.12,-0.11,4.89,-0.72,0.15,-0.08,0.0
117,11.41,1.68,4.38,-0.71,0.22,-0.23,0.0
118,11.68,0.13,4.04,-0.78,-0.45,-0.11,0.0
119,8.45,0.79,3.4,-0.43,0.1,0.02,0.0
120,9.14,1.43,4.69,-0.73,0.23,-0.06,0.0
121,8.66,1.13,3.45,-0.08,0.0,0.06,0.0
122,10.11,-0.3,3.92,-0.75,-0.04,-0.09,0.0
123,9.11,0.67,4.76,-0.75,0.18,-0.12,0.0
124,9.5,0.02,4.93,-0.76,0.14,-0.11,0.0
125,11.32,1.94,4.59,-0.71,0.16,-0.19,0.0
126,8.93,1.24,3.76,-0.7,-0.01,0.02,0.0
127,9.69,0.82,4.91,-0.78,0.16,-0.06,0.0
128,9.37,0.42,5.07,-0.61,0.15,-0.01,0.0
129,8.93,0.51,3.22,-0.61,0.04,0.11,0.0
130,9.58,-0.07,3.83,-0.69,0.03,-0.06,0.0
131,9.11,0.14,3.94,-0.62,0.04,0.01,0.0
132,9.08,0.32,4.13,-0.63,0.04,-0.01,0.0
133,9.34,0.29,5.09,-0.84,0.15,-0.06,0.0
134,9.16,-0.02,4.08,-0.38,-0.12,-0.01,0.0
135,9.56,1.58,4.31,-0.56,0.15,-0.1,0.0
136,11.54,0.26,4.94,-0.65,0.23,0.07,0.0
137,11.09,-0.11,4.0,-0.59,-0.19,0.06,0.0
138,8.9,0.79,3.63,-0.36,0.03,-0.01,0.0
139,9.72,-0.09,4.03,-0.71,-0.14,-0.01,0.0
140,9.62,0.48,4.76,-0.76,0.18,-0.08,0.0
141,9.71,-0.17,4.79,-0.72,0.21,-0.04,0.0
142,11.99,0.3,3.79,-0.83,-0.39,-0.17,0.0
143,8.39,0.79,3.82,-0.54,0.08,0.01,0.0
144,11.18,0.26,5.5,-0.56,0.23,0.16,0.0
145,11.48,-0.17,3.82,-0.41,-0.43,-0.06,0.0
146,8.82,0.45,3.92,-0.46,-0.02,-0.01,0.0
147,9.33,0.57,3.64,-1.06,-0.06,-0.15,0.0
148,9.09,0.25,3.76,-1.1,0.03,-0.1,0.0
149,9.79,-0.24,4.94,-1.11,0.09,-0.23,0.0
150,8.57,0.29,4.19,-0.73,-0.04,0.01,0.0
151,10.28,0.8,4.89,-0.44,0.07,0.09,0.0
152,11.3,-0.35,4.51,-0.27,0.37,0.13,0.0
153,8.32,0.33,4.53,-0.47,0.2,-0.02,0.0
154,9.47,-0.33,4.96,-0.89,-0.07,-0.13,0.0
155,9.87,-0.46,5.78,-0.77,0.12,-0.04,0.0
156,8.01,-0.03,4.21,-0.48,-0.16,0.04,0.0
157,9.32,0.6,3.68,-0.4,-0.17,0.01,0.0
158,10.18,0.49,4.54,-0.44,-0.04,0.01,0.0
159,12.14,0.01,4.09,-0.45,0.3,0.07,0.0
160,8.48,0.43,3.85,-0.49,0.17,-0.04,0.0
161,9.79,-0.41,4.34,-0.97,-0.12,-0.2,0.0
162,9.75,0.08,5.29,-0.7,0.18,-0.13,0.0
163,8.88,1.01,3.86,-0.58,-0.09,-0.02,0.0
164,10.07,0.3,4.75,-0.55,-0.03,0.02,0.0
165,10.24,0.02,5.09,-0.22,0.35,0.18,0.0
166,8.62,0.29,4.1,-0.31,0.12,0.04,0.0
167,8.77,0.0,3.81,-0.86,-0.13,-0.12,0.0
168,9.95,-0.12,5.28,-0.79,0.05,-0.08,0.0
169,11.02,1.06,4.44,-0.22,0.38,0.01,0.0
170,8.56,0.41,4.05,-0.74,-0.25,0.02,0.0
171,10.33,0.6,4.9,-0.57,0.14,0.0,0.0
172,12.75,0.08,3.64,-0.28,-0.47,-0.0,0.0
173,8.04,0.58,4.26,-0.36,0.07,0.06,0.0
174,9.6,-0.13,4.36,-0.66,-0.14,-0.05,0.0
175,8.77,0.45,3.79,-0.67,0.01,-0.01,0.0
176,9.67,0.1,4.88,-0.81,-0.01,-0.08,0.0
177,10.28,0.41,4.0,-0.56,-0.15,-0.04,0.0
178,8.73,0.76,3.97,-0.5,0.18,-0.01,0.0
179,10.11,0.32,4.99,-0.54,0.17,0.01,0.0
180,11.37,0.45,5.13,-0.39,0.45,0.05,0.0
181,8.29,0.69,4.65,-0.43,0.1,0.03,0.0
182,9.35,-0.3,4.41,-0.96,-0.12,-0.15,0.0
183,9.95,-0.22,5.32,-1.03,-0.08,-0.09,0.0
184,10.68,0.32,5.09,-0.51,0.15,-0.06,0.0
185,8.49,0.64,4.38,-0.43,0.02,-0.02,0.0
186,9.97,0.37,4.91,-0.5,-0.06,-0.02,0.0
187,8.18,0.71,4.36,-0.35,0.03,-0.01,0.0
188,9.44,-0.12,4.34,-0.86,-0.07,-0.21,0.0
189,8.54,0.17,4.22,-0.93,-0.02,-0.16,0.0
190,9.97,-0.03,5.27,-1.02,-0.03,-0.19,0.0
191,8.17,0.83,4.44,-0.45,-0.14,0.08,0.0
192,8.89,1.08,3.43,-0.5,0.01,0.07,0.0
193,10.37,0.3,4.85,-0.61,0.11,0.01,0.0
194,10.17,0.4,4.91,-0.37,0.23,0.12,0.0
195,11.21,-0.01,4.81,-0.34,0.27,0.16,0.0
196,12.33,-0.81,3.89,-0.54,-0.48,-0.03,0.0
197,8.1,0.13,4.3,-0.61,0.02,-0.04,0.0
198,9.61,-0.58,3.94,-1.11,0.03,-0.25,0.0
199,9.6,-0.44,5.09,-0.89,0.04,-0.19,0.0
200,8.78,0.37,4.45,-0.57,-0.12,-0.04,0.0
201,10.14,0.35,5.13,-0.45,0.05,-0.03,0.0
202,11.96,0.19,4.67,-0.23,0.18,0.06,0.0
203,11.88,0.09,3.87,-0.41,-0.43,0.03,0.0
204,8.52,0.28,4.12,-0.57,0.14,0.06,0.0
205,9.3,-0.35,4.19,-1.13,-0.04,-0.25,0.0
206,9.75,-0.21,5.41,-0.96,0.13,-0.16,0.0
207,8.41,0.51,3.86,-0.65,-0.26,0.01,0.0
208,9.13,0.93,3.25,-0.55,0.02,0.08,0.0
209,10.14,0.45,4.8,-0.58,0.03,-0.05,0.0
210,12.2,0.03,3.88,-0.6,-0.35,-0.09,0.0
211,8.13,0.08,4.08,-0.53,0.23,0.04,0.0
212,9.72,-0.17,5.24,-0.86,0.06,-0.11,0.0
213,11.29,0.93,4.8,-0.42,0.2,-0.02,0.0
214,7.8,0.4,4.1,-0.59,-0.08,0.09,0.0
215,8.92,0.84,4.07,-0.56,-0.01,-0.0,0.0
216,10.0,0.54,5.04,-0.42,0.14,0.03,0.0
217,11.2,0.22,5.02,-0.27,0.3,0.09,0.0
218,12.06,-0.38,3.8,-0.48,-0.48,-0.06,0.0
219,8.39,0.27,4.11,-0.37,-0.04,0.05,0.0
220,10.12,-0.29,4.11,-0.8,-0.14,-0.17,0.0
221,8.68,0.3,3.67,-0.78,0.01,-0.09,0.0
222,10.05,-0.11,4.84,-0.84,0.14,-0.13,0.0
223,11.35,0.58,4.89,-0.57,0.21,-0.1,0.0
224,8.12,0.64,3.77,-0.5,-0.08,0.09,0.0
225,8.74,0.85,3.48,-0.44,-0.01,0.06,0.0
226,10.12,0.45,4.8,-0.41,0.15,0.09,0.0
227,11.94,0.62,4.72,-0.42,0.25,0.0,0.0
228,8.3,0.5,4.03,-0.39,0.03,0.01,0.0
229,9.87,-0.63,3.93,-0.84,-0.08,-0.12,0.0
230,9.83,-0.25,4.86,-0.82,0.09,-0.08,0.0
231,9.79,-0.2,4.98,-0.65,0.1,-0.01,0.0
232,11.28,0.04,5.37,-0.59,0.05,-0.07,0.0
233,8.96,0.6,3.25,-0.48,0.09,0.03,0.0
234,10.17,0.09,4.87,-0.43,-0.0,0.06,0.0
235,11.09,0.06,4.78,-0.2,0.41,0.15,0.0
236,8.32,0.25,4.51,-0.5,0.11,-0.11,0.0
237,9.68,-0.52,4.46,-1.0,-0.22,-0.27,0.0
238,8.73,0.73,4.39,-0.48,0.1,0.09,0.0
239,9.91,0.34,5.29,-0.49,-0.13,0.04,0.0
240,8.09,0.48,3.95,-0.52,0.13,-0.1,0.0
241,9.77,-0.61,4.64,-0.94,-0.24,-0.24,0.0
242,10.36,-0.08,5.07,-0.8,0.08,-0.1,0.0
243,8.83,0.86,3.72,-0.49,-0.11,0.06,0.0
244,10.29,0.62,4.84,-0.65,0.02,-0.02,0.0
245,12.8,-0.71,3.19,-0.69,-0.53,-0.12,0.0
246,8.4,0.45,3.97,-0.49,0.11,-0.01,0.0
247,9.99,-0.08,4.85,-0.93,0.07,-0.11,0.0
248,8.88,0.93,3.62,-0.57,0.06,0.02,0.0
249,10.12,0.25,4.73,-0.6,0.02,0.0,0.0
250,12.3,0.12,3.17,-0.47,-0.61,-0.12,0.0
251,7.92,0.5,3.92,-0.65,0.18,-0.01,0.0
252,9.85,-0.41,4.24,-0.97,-0.01,-0.16,0.0
253,10.37,0.69,4.86,-0.59,0.08,0.01,0.0
254,11.92,-0.57,3.7,-0.53,-0.58,-0.09,0.0
255,8.64,0.17,3.63,-0.52,0.11,-0.03,0.0
256,9.82,-0.71,4.19,-1.09,-0.3,-0.28,0.0
257,9.47,-0.18,4.98,-0.72,0.16,-0.16,0.0
258,8.94,0.84,3.77,-0.57,0.03,0.08,0.0
259,10.73,0.8,4.55,-0.6,0.09,0.0,0.0
260,11.46,-0.72,3.31,-0.63,-0.35,-0.1,0.0
261,9.77,-0.47,3.75,-0.87,-0.27,-0.2,0.0
262,8.8,0.02,3.64,-0.79,-0.1,-0.08,0.0
263,9.86,-0.27,4.54,-0.61,0.11,-0.04,0.0
264,10.23,-0.34,4.76,-0.5,0.09,0.08,0.0
265,11.2,0.53,5.4,-0.4,-0.01,0.06,0.0
266,8.4,0.31,3.51,-0.6,-0.05,0.03,0.0
267,10.47,0.47,4.17,-0.56,0.13,0.04,0.0
268,9.09,-0.17,3.42,-0.43,0.22,-0.09,0.0
269,12.1,-0.74,3.63,-0.69,-0.46,-0.17,0.0
270,8.78,0.65,3.32,-0.53,0.01,-0.12,0.0
271,9.58,-0.25,3.72,-0.84,0.04,-0.15,0.0
272,9.04,0.15,3.8,-0.81,0.13,-0.06,0.0
273,10.41,-0.05,4.55,-0.68,0.11,-0.09,0.0
274,8.49,0.36,3.78,-0.71,0.04,0.07,0.0
275,10.1,0.33,5.18,-0.55,0.09,0.02,0.0
276,11.76,0.36,4.78,-0.34,0.34,0.11,0.0
277,8.57,0.2,4.11,-0.5,0.03,0.01,0.0
278,9.47,-0.49,3.87,-0.96,-0.11,-0.27,0.0
279,9.43,0.22,5.12,-0.8,0.3,-0.06,0.0
280,9.67,-0.23,5.47,-0.47,0.16,0.06,0.0
281,8.74,0.89,3.85,-0.47,0.09,0.0,0.0
282,10.31,0.25,5.01,-0.58,0.07,-0.05,0.0
283,11.28,0.17,5.34,-0.31,0.32,0.03,0.0
284,12.39,-0.3,3.89,-0.47,-0.47,-0.1,0.0
285,8.37,0.72,3.94,-0.48,0.15,-0.01,0.0
286,9.46,0.0,4.35,-0.91,-0.1,-0.16,0.0
287,8.76,0.27,4.48,-0.91,0.0,-0.02,0.0
288,9.63,0.17,5.11,-0.82,0.09,-0.03,0.0
289,8.71,0.34,4.02,-0.57,-0.05,0.08,0.0
290,10.34,0.31,4.82,-0.53,0.11,0.1,0.0
291,11.8,-0.54,3.71,-0.59,-0.54,-0.2,0.0
292,8.48,0.3,3.65,-0.48,-0.17,-0.19,0.0
293,10.02,-0.26,3.83,-1.04,-0.29,-0.3,0.0
294,9.95,-0.41,4.66,-0.7,0.07,-0.0,0.0
295,11.81,0.39,4.85,-0.33,0.2,0.05,0.0
296,8.91,0.62,3.73,-0.55,0.01,0.04,0.0
297,10.4,0.26,4.55,-0.47,0.11,0.03,0.0
298,12.34,-0.54,3.6,-0.59,-0.45,-0.17,0.0
299,8.62,0.28,3.81,-0.44,0.1,-0.02,0.0
300,10.05,-0.17,3.93,-0.9,-0.1,-0.21,0.0
301,8.78,0.26,3.71,-0.89,-0.04,-0.1,0.0
302,9.63,0.2,4.7,-0.97,0.14,-0.14,0.0
303,10.53,0.58,4.68,-0.43,-0.01,0.01,0.0
304,8.63,0.02,3.42,-0.32,0.51,-0.18,0.0
305,11.79,-0.57,3.87,-0.49,-0.32,-0.13,0.0
306,8.35,0.77,4.3,-0.4,0.16,0.02,0.0
307,8.62,0.38,4.33,-0.87,-0.07,-0.07,0.0
308,9.79,0.25,5.11,-0.94,0.07,-0.07,0.0
309,9.95,0.26,5.34,-0.84,0.01,0.01,0.0
310,9.79,-0.19,5.31,-0.7,-0.05,0.09,0.0
311,11.0,0.11,4.82,-0.68,0.27,-0.01,0.0
312,12.06,0.07,3.77,-0.61,-0.42,-0.1,0.0
313,7.99,0.34,3.93,-0.4,-0.17,0.12,0.0
314,8.88,0.8,4.08,-0.48,-0.07,-0.02,0.0
315,9.5,0.31,5.55,-0.35,-0.04,0.05,0.0
316,10.11,1.36,4.52,-0.46,0.05,-0.09,0.0
317,11.66,0.51,3.97,-0.43,0.57,0.07,0.0
318,11.43,-0.3,3.79,-0.72,-0.13,0.03,0.0
319,8.62,0.26,4.28,-0.5,-0.02,0.04,0.0
320,9.65,-0.54,4.38,-0.9,-0.05,-0.13,0.0
321,9.74,-0.3,5.35,-0.89,-0.01,-0.07,0.0
322,8.9,1.03,4.05,-0.52,-0.17,-0.07,0.0
323,9.87,0.06,5.0,-0.57,0.26,0.07,0.0
324,8.39,0.64,4.53,-0.32,0.11,0.04,0.0
325,8.92,-0.3,4.72,-0.77,-0.12,-0.14,0.0
326,9.97,0.11,5.37,-0.83,-0.02,-0.14,0.0
327,11.37,0.5,4.83,-0.48,0.29,-0.1,0.0
328,8.06,0.37,4.83,-0.67,-0.01,0.04,0.0
329,8.75,0.75,4.53,-0.65,0.11,-0.07,0.0
330,9.76,0.63,5.64,-0.58,0.17,-0.07,0.0
331,11.25,0.17,5.32,-0.41,0.37,0.07,0.0
332,8.21,0.73,4.65,-0.5,-0.01,-0.06,0.0
333,9.44,-0.32,4.68,-0.95,-0.06,-0.14,0.0
334,10.17,0.02,5.44,-0.9,0.14,-0.11,0.0
335,9.67,-0.07,5.52,-0.67,0.23,-0.09,0.0
336,10.65,0.82,5.54,-0.49,0.31,-0.12,0.0
337,10.94,0.47,4.43,-0.62,-0.43,-0.07,0.0
338,8.15,0.44,4.69,-0.42,-0.2,0.08,0.0
339,8.87,1.3,3.78,-0.52,-0.13,-0.03,0.0
340,10.53,0.6,4.79,-0.62,-0.02,0.02,0.0
341,11.56,0.51,5.23,-0.66,0.41,0.01,0.0
342,8.38,0.16,3.57,-0.55,0.33,-0.04,0.0
343,8.51,0.8,4.23,-0.51,-0.0,0.02,0.0
344,9.77,-0.21,4.23,-0.75,-0.1,-0.08,0.0
345,8.58,0.23,4.31,-0.71,0.03,-0.03,0.0
346,9.87,0.05,5.28,-0.74,0.18,-0.06,0.0
347,8.6,0.82,4.47,-0.59,-0.02,-0.04,0.0
348,10.26,0.52,5.28,-0.6,0.05,-0.02,0.0
349,8.37,0.12,4.73,-0.5,0.6,-0.09,0.0
350,8.42,0.59,4.81,-0.29,-0.21,-0.08,0.0
351,8.66,0.92,4.7,-0.65,-0.09,-0.01,0.0
352,10.18,0.59,5.55,-0.71,0.07,-0.06,0.0
353,10.84,1.0,5.23,-0.61,0.24,-0.01,0.0
354,7.89,0.81,4.51,-0.73,-0.19,0.03,0.0
355,8.81,0.97,4.22,-0.58,-0.04,0.03,0.0
356,9.98,0.44,5.22,-0.47,0.03,0.05,0.0
357,9.68,1.13,5.55,-0.37,0.2,0.0,0.0
358,10.95,0.68,5.39,-0.37,0.29,0.04,0.0
359,12.34,-0.28,3.89,-0.55,-0.38,-0.05,0.0
360,8.16,0.7,4.39,-0.47,-0.0,-0.08,0.0
361,9.7,-0.11,4.18,-0.97,-0.02,-0.19,0.0
362,8.41,0.54,4.57,-0.95,-0.09,-0.18,0.0
363,9.38,0.13,5.38,-0.95,0.05,-0.09,0.0
364,8.56,0.88,4.44,-0.35,-0.02,0.03,0.0
365,10.28,1.12,5.25,-0.49,-0.06,0.02,0.0
366,11.04,0.31,4.74,-0.48,0.33,0.04,0.0
367,12.38,0.16,4.02,-0.48,-0.44,-0.14,0.0
368,8.25,0.79,4.42,-0.48,0.12,-0.01,0.0
369,9.46,-0.17,4.7,-0.88,-0.13,-0.18,0.0
370,10.2,0.01,5.5,-0.98,-0.02,-0.13,0.0
371,8.69,0.66,3.84,-0.6,-0.03,-0.03,0.0
372,9.81,-0.06,5.08,-0.5,-0.13,-0.04,0.0
373,10.0,1.61,5.4,-0.39,0.11,-0.14,0.0
374,10.83,0.92,4.89,-0.52,0.2,-0.19,0.0
375,8.21,0.64,4.15,-0.44,0.09,0.02,0.0
376,9.82,0.2,4.11,-0.83,-0.12,-0.1,0.0
377,8.69,0.66,3.91,-0.83,-0.03,-0.03,0.0
378,9.95,0.39,4.96,-0.85,0.1,-0.1,0.0
379,11.45,0.73,5.22,-0.42,0.28,0.06,0.0
380,8.61,0.56,4.02,-0.67,0.31,-0.02,0.0
381,11.84,0.11,4.4,-0.38,-0.51,-0.01,0.0
382,8.19,0.57,4.48,-0.33,0.08,0.02,0.0
383,9.74,-0.15,4.28,-0.91,-0.12,-0.15,0.0
384,9.59,-0.16,5.37,-0.93,-0.02,-0.13,0.0
385,8.3,0.53,4.46,-0.64,-0.12,-0.02,0.0
386,8.89,1.01,3.9,-0.6,0.03,0.04,0.0
387,10.18,0.69,5.21,-0.42,0.05,0.04,0.0
388,10.36,0.45,5.44,-0.15,0.41,0.19,0.0
389,11.66,0.7,4.77,-0.16,0.4,0.19,0.0
390,11.62,-0.1,3.9,-0.58,-0.47,0.02,0.0
391,8.71,0.41,4.28,-0.54,0.08,-0.0,0.0
392,9.41,0.13,5.25,-0.98,-0.06,-0.25,0.0
393,8.26,0.62,4.33,-0.38,-0.13,0.08,0.0
394,8.6,0.94,3.61,-0.43,-0.03,0.06,0.0
395,10.45,0.83,4.98,-0.54,0.02,-0.01,0.0
396,10.96,0.57,4.95,-0.53,0.3,0.0,0.0
397,9.12,0.93,3.35,-0.53,-0.17,-0.08,0.0
398,9.8,-0.15,3.76,-1.01,-0.15,-0.28,0.0
399,9.95,0.09,4.63,-0.72,0.19,-0.04,0.0
400,8.66,0.6,4.01,-0.47,0.12,0.11,0.0
401,9.57,0.89,4.95,-0.51,0.12,0.1,0.0
402,8.01,0.62,4.29,-0.43,0.01,-0.06,0.0
403,9.53,-0.24,4.44,-0.84,-0.07,-0.21,0.0
404,8.36,0.43,4.34,-0.8,-0.04,-0.1,0.0
405,10.38,0.35,5.13,-0.8,0.05,-0.12,0.0
406,8.12,0.67,4.45,-0.59,0.0,0.07,0.0
407,8.77,1.15,4.12,-0.59,-0.03,0.03,0.0
408,9.87,0.91,5.2,-0.56,0.04,0.01,0.0
409,11.68,0.61,4.99,-0.39,0.19,-0.01,0.0
410,12.25,-0.07,3.85,-0.49,-0.5,-0.05,0.0
411,7.94,0.66,3.82,-0.48,-0.05,-0.01,0.0
412,10.16,-0.03,3.91,-0.83,-0.08,-0.13,0.0
413,8.64,0.6,3.77,-0.85,-0.05,-0.09,0.0
414,9.68,0.26,4.83,-1.0,0.01,-0.12,0.0
415,9.84,0.02,4.79,-0.54,0.17,0.08,0.0
416,11.15,1.01,4.44,-0.47,0.29,0.02,0.0
417,8.53,0.74,3.94,-0.41,-0.04,0.05,0.0
418,8.63,1.33,4.14,-0.58,0.12,-0.02,0.0
419,9.79,0.88,4.81,-0.6,0.09,-0.01,0.0
420,9.98,0.86,4.95,-0.65,0.08,-0.04,0.0
421,10.19,1.34,5.13,-0.66,0.09,-0.07,0.0
422,8.32,0.66,3.93,-0.56,-0.02,0.06,0.0
423,9.94,-0.22,4.35,-0.89,0.04,-0.29,0.0
424,9.49,0.21,5.16,-0.82,-0.03,-0.1,0.0
425,11.52,0.62,5.2,-0.47,0.19,-0.14,0.0
426,8.78,1.08,4.63,-0.42,0.12,0.06,0.0
427,10.25,1.38,5.04,-0.58,-0.08,-0.03,0.0
428,11.28,0.45,5.32,-0.44,0.31,0.01,0.0
429,11.43,0.1,4.24,-0.39,-0.23,-0.1,0.0
430,8.5,0.66,4.66,-0.38,0.03,0.04,0.0
431,8.73,0.53,4.38,-0.79,-0.08,-0.06,0.0
432,9.5,0.15,4.97,-0.76,0.11,-0.1,0.0
433,10.13,0.42,5.44,-0.66,0.13,-0.02,0.0
434,10.7,1.14,4.95,-0.56,0.35,-0.05,0.0
435,8.12,1.01,4.52,-0.74,-0.04,-0.02,0.0
436,9.46,0.13,4.41,-0.68,-0.24,-0.05,0.0
437,9.79,0.7,5.43,-0.46,0.16,0.12,0.0
438,10.42,0.56,5.77,-0.39,0.28,0.13,0.0
439,8.19,0.23,4.92,-0.49,0.0,0.03,0.0
440,8.39,-0.16,5.05,-0.86,0.09,-0.14,0.0
441,8.77,-0.2,5.67,-0.82,-0.02,-0.14,0.0
442,11.51,0.75,6.4,-0.61,-0.01,-0.31,0.0
443,9.36,0.02,4.78,-0.51,-0.14,0.18,0.0
444,8.87,0.74,4.51,-0.28,-0.07,0.12,0.0
445,9.64,1.22,5.75,-0.43,0.01,-0.06,0.0
446,9.11,1.02,5.93,-0.76,0.35,-0.19,0.0
447,8.24,0.6,4.4,-0.74,0.04,-0.14,0.0
448,9.16,0.09,4.71,-0.88,0.0,-0.13,0.0
449,8.51,0.0,4.83,-0.84,0.13,-0.12,0.0
450,9.28,0.26,5.64,-0.76,0.17,-0.13,0.0
451,11.18,0.77,6.33,-0.57,0.02,-0.07,0.0
452,8.49,1.03,4.39,-0.74,-0.02,0.02,0.0
453,9.05,0.29,4.77,-0.63,-0.04,0.02,0.0
454,8.57,0.72,4.76,-0.43,0.02,0.09,0.0
455,9.97,0.69,5.7,-0.48,0.28,0.05,0.0
456,8.38,0.6,4.81,-0.57,0.1,-0.04,0.0
457,8.46,0.36,5.02,-0.75,-0.01,-0.11,0.0
458,8.59,-0.12,5.23,-0.84,0.04,-0.15,0.0
459,9.63,0.22,5.73,-0.72,0.1,-0.16,0.0
460,9.39,0.33,6.17,-0.73,0.21,-0.17,0.0
461,10.38,0.85,4.87,-0.71,-0.16,-0.12,0.0
462,8.03,0.62,5.24,-0.82,-0.05,-0.05,0.0
463,9.25,1.07,4.4,-0.3,-0.53,-0.03,0.0
464,9.27,0.54,4.25,-0.51,-0.03,-0.04,0.0
465,8.99,1.02,5.76,-0.6,0.69,0.07,0.0
466,8.23,0.98,4.36,-0.3,0.34,-0.02,0.0
467,7.74,0.49,4.91,-0.46,-0.3,-0.01,0.0
468,8.66,0.16,4.24,-0.8,-0.1,-0.05,0.0
469,9.94,0.45,5.43,-0.6,0.09,-0.05,0.0
470,11.55,1.05,5.38,-0.53,0.14,-0.15,0.0
471,8.33,0.92,4.31,-0.75,-0.14,-0.02,0.0
472,9.75,0.55,3.78,-0.79,-0.23,-0.04,0.0
473,8.82,0.53,4.02,-0.62,0.02,0.01,0.0
474,9.78,0.72,5.14,-0.54,0.29,-0.07,0.0
475,10.22,0.67,5.28,-0.46,0.37,-0.0,0.0
476,8.63,0.79,3.89,-0.3,-0.23,0.06,0.0
477,8.91,0.58,4.03,-0.66,-0.09,-0.03,0.0
478,10.46,0.52,4.37,-0.77,0.17,-0.08,0.0
479,10.33,0.27,4.99,-0.64,0.25,-0.02,0.0
480,9.87,-0.23,5.04,-0.74,0.25,0.03,0.0
481,8.22,1.06,4.13,-0.81,-0.17,-0.12,0.0
482,8.54,0.82,4.31,-0.59,-0.06,-0.0,0.0
483,9.93,1.42,4.62,-0.59,0.19,-0.07,0.0
484,11.33,0.29,4.09,-0.55,0.3,0.05,0.0
485,8.86,0.27,4.13,-0.47,0.16,0.01,0.0
486,8.71,-0.25,4.87,-0.89,0.42,0.04,0.0
487,9.53,-0.25,5.02,-0.73,-0.01,-0.25,0.0
488,11.66,0.94,4.61,-0.66,-0.13,-0.2,0.0
489,9.09,0.98,4.33,-0.44,-0.04,-0.01,0.0
490,8.9,0.96,4.04,-0.44,-0.03,-0.02,0.0
491,9.87,1.31,4.92,-0.59,0.27,-0.1,0.0
492,8.52,0.38,3.79,-0.55,-0.12,0.03,0.0
493,9.15,0.09,3.71,-0.7,-0.08,0.04,0.0
494,9.32,-0.03,3.97,-0.7,-0.07,-0.1,0.0
495,10.31,0.91,4.49,-0.55,0.17,-0.1,0.0
496,11.16,1.03,4.26,-0.63,0.11,-0.25,0.0
497,11.37,1.52,3.28,-0.64,-0.16,-0.11,0.0
498,9.21,0.9,3.45,-0.69,-0.19,0.14,0.0
499,8.94,1.12,3.78,-0.51,-0.04,-0.02,0.0
500,10.26,1.03,4.41,-0.51,0.03,-0.03,0.0
501,9.97,1.08,4.98,-0.59,0.33,-0.08,0.0
502,8.76,0.56,3.84,-0.48,-0.02,-0.12,0.0
503,9.17,0.57,4.02,-0.71,0.01,-0.05,0.0
504,9.63,0.93,4.31,-0.65,-0.08,-0.04,0.0
505,10.26,0.77,4.0,-0.68,0.17,-0.01,0.0
506,10.14,0.68,4.79,-0.67,0.23,-0.01,0.0
507,9.84,0.24,4.99,-0.65,0.32,0.06,0.0
508,8.65,0.79,3.9,-0.77,-0.22,0.09,0.0
509,8.8,1.52,4.19,-0.71,-0.11,-0.04,0.0
510,8.83,1.28,3.62,-0.66,0.03,-0.03,0.0
511,10.11,1.07,4.48,-0.51,0.09,-0.02,0.0
512,10.13,1.42,4.71,-0.55,0.47,-0.05,0.0
513,8.76,0.2,3.97,-0.49,-0.09,0.09,0.0
514,10.19,-0.04,3.18,-0.77,0.11,-0.02,0.0
515,10.37,-0.1,4.28,-0.72,0.08,-0.09,0.0
516,12.4,0.91,4.76,-0.57,-0.08,-0.26,0.0
517,9.04,0.7,3.39,-0.82,-0.2,-0.04,0.0
518,9.59,1.03,3.01,-0.62,-0.19,-0.06,0.0
519,9.2,1.31,2.99,-0.55,-0.26,-0.03,0.0
520,10.53,0.83,3.73,-0.66,0.21,0.02,0.0
521,9.65,1.41,4.41,-0.63,0.43,0.01,0.0
522,12.02,0.61,3.71,-0.63,0.43,0.07,0.0
523,8.67,0.34,3.95,-0.58,0.13,-0.05,0.0
524,9.0,0.29,4.13,-0.67,-0.08,0.04,0.0
525,10.08,0.56,4.71,-0.66,0.03,-0.17,0.0
526,9.75,0.27,4.55,-0.68,0.32,-0.15,0.0
527,12.05,0.96,4.56,-0.68,0.21,-0.17,0.0
528,11.35,1.74,3.46,-0.79,-0.26,-0.09,0.0
529,8.71,0.88,3.7,-0.8,-0.14,-0.0,0.0
530,9.89,1.24,4.69,-0.56,0.25,-0.05,0.0
531,8.75,1.02,4.02,-0.55,0.14,-0.07,0.0
532,8.98,0.39,3.96,-0.72,0.0,-0.1,0.0
533,10.11,0.65,4.75,-0.78,0.03,-0.16,0.0
534,11.08,1.41,4.54,-0.68,0.29,-0.06,0.0
535,8.6,1.38,3.76,-0.8,-0.13,-0.01,0.0
536,9.09,1.29,3.52,-0.56,-0.07,0.07,0.0
537,10.48,1.02,4.02,-0.53,0.03,0.02,0.0
538,9.99,1.32,4.45,-0.55,0.28,-0.05,0.0
539,9.91,1.49,4.81,-0.54,0.3,-0.1,0.0
540,11.91,0.43,4.07,-0.53,0.33,0.04,0.0
541,8.65,1.08,4.07,-0.57,0.1,-0.04,0.0
542,8.79,0.54,3.38,-0.78,0.02,-0.14,0.0
543,10.15,0.4,4.64,-0.76,0.09,-0.08,0.0
544,10.92,1.26,4.69,-0.51,0.38,-0.01,0.0
545,11.67,1.56,3.45,-0.88,-0.62,-0.08,0.0
546,8.42,0.94,4.05,-0.88,-0.09,0.0,0.0
547,8.72,1.28,3.52,-0.49,0.04,0.03,0.0
548,10.23,1.14,4.51,-0.45,-0.08,0.1,0.0
549,10.1,1.35,4.89,-0.51,0.13,-0.06,0.0
550,11.75,1.11,4.38,-0.52,0.13,0.0,0.0
551,8.47,0.88,4.19,-0.47,0.08,-0.06,0.0
552,8.95,0.66,3.81,-0.82,-0.08,-0.13,0.0
553,10.29,0.58,4.47,-0.53,0.16,0.04,0.0
554,11.63,1.3,4.45,-0.81,0.41,-0.16,0.0
555,9.12,0.9,3.76,-0.72,0.56,-0.14,0.0
556,10.49,1.85,4.07,-0.52,-0.1,-0.04,0.0
557,9.14,1.41,3.99,-0.66,-0.0,0.05,0.0
558,8.91,1.62,4.52,-0.58,-0.05,-0.01,0.0
559,9.68,1.16,5.11,-0.49,0.08,-0.02,0.0
560,10.1,1.83,4.87,-0.56,0.22,-0.02,0.0
561,9.79,2.02,4.79,-0.6,0.29,-0.07,0.0
562,9.04,1.57,5.52,-0.69,0.43,-0.03,0.0
563,8.78,0.97,4.22,-0.56,0.48,0.08,0.0
564,8.53,0.49,4.45,-0.44,-0.06,0.13,0.0
565,9.41,0.28,4.47,-0.78,-0.18,-0.05,0.0
566,9.1,0.17,4.21,-0.74,-0.05,0.06,0.0
567,9.12,0.08,4.91,-0.7,-0.01,0.03,0.0
568,9.74,0.36,5.41,-0.83,0.27,-0.15,0.0
569,11.38,0.82,5.87,-0.78,0.21,-0.3,0.0
570,10.62,1.27,4.0,-0.41,-0.42,-0.04,0.0
571,8.75,1.0,4.31,-0.7,-0.25,0.13,0.0
572,9.14,0.71,3.85,-0.54,-0.04,0.17,0.0
573,10.35,0.76,4.89,-0.46,0.18,0.11,0.0
574,9.89,0.87,5.38,-0.59,0.26,0.0,0.0
575,8.33,0.06,4.19,-0.54,-0.08,-0.03,0.0
576,8.95,-0.3,4.15,-0.71,-0.05,-0.05,0.0
577,10.08,-0.05,5.03,-0.53,0.13,-0.07,0.0
578,10.56,-0.05,5.5,-0.55,0.16,-0.07,0.0
579,8.88,0.7,3.68,-0.82,-0.21,-0.05,0.0
580,9.96,0.62,4.48,-0.57,0.2,-0.05,0.0
581,9.88,1.01,5.02,-0.68,0.24,-0.15,0.0
582,8.3,0.75,3.96,-0.46,-0.01,-0.15,0.0
583,8.95,0.23,3.64,-0.73,0.05,-0.14,0.0
584,9.6,0.57,4.76,-0.78,0.06,-0.11,0.0
585,8.43,1.24,3.97,-0.78,-0.09,-0.03,0.0
586,8.59,1.39,3.81,-0.31,-0.14,0.1,0.0
587,10.18,1.15,4.58,-0.28,-0.07,0.15,0.0
588,11.21,0.69,4.21,-0.4,0.42,0.24,0.0
589,8.37,0.47,3.89,-0.87,0.09,-0.28,0.0
590,8.81,0.36,4.11,-0.89,-0.02,-0.17,0.0
591,9.78,-0.08,4.8,-0.78,-0.02,-0.14,0.0
592,11.34,0.64,4.64,-0.6,0.24,0.09,0.0
593,11.58,0.94,2.93,-0.75,-0.3,-0.03,0.0
594,8.62,1.16,3.81,-0.69,-0.08,-0.09,0.0
595,8.66,1.25,3.3,-0.44,-0.06,0.01,0.0
596,10.43,0.91,4.67,-0.51,0.11,0.06,0.0
597,8.25,0.59,3.89,-0.58,0.04,-0.18,0.0
598,8.8,0.82,3.73,-0.71,-0.03,-0.08,0.0
599,10.34,0.7,4.52,-0.45,0.13,0.08,0.0
600,11.69,1.15,3.99,-0.67,0.3,-0.03,0.0
601,11.99,1.2,3.26,-0.78,-0.16,0.06,0.0
602,8.4,1.3,3.99,-0.79,-0.06,-0.04,0.0
603,8.83,1.43,3.63,-0.69,-0.1,-0.01,0.0
604,10.47,0.68,4.24,-0.65,-0.01,-0.03,0.0
605,12.75,0.86,3.03,-0.32,-0.44,-0.02,0.0
606,8.22,0.94,3.79,-0.46,0.04,-0.18,0.0
607,8.84,1.07,3.79,-0.66,-0.04,-0.09,0.0
608,10.4,0.3,4.75,-0.65,0.02,-0.01,0.0
609,10.94,1.03,4.52,-0.6,0.46,0.08,0.0
610,11.72,1.2,3.49,-0.87,-0.43,0.01,0.0
611,8.33,1.02,3.82,-0.87,-0.07,-0.08,0.0
612,8.88,1.13,3.52,-0.45,-0.04,-0.0,0.0
613,9.97,0.89,4.6,-0.44,-0.09,0.02,0.0
614,11.58,0.36,4.52,-0.48,0.39,0.12,0.0
615,12.23,1.29,3.38,-0.38,-0.48,0.08,0.0
616,8.49,0.73,4.28,-0.72,0.18,-0.22,0.0
617,8.77,0.73,4.56,-0.92,-0.06,-0.19,0.0
618,10.31,0.33,4.96,-0.62,-0.05,-0.03,0.0
619,10.86,0.8,4.57,-0.71,0.33,0.0,0.0
620,10.57,1.78,3.79,-0.71,-0.41,0.05,0.0
621,8.49,0.94,4.04,-0.69,-0.14,-0.03,0.0
622,8.73,1.17,3.92,-0.46,-0.0,0.03,0.0
623,10.2,1.04,5.06,-0.47,-0.14,-0.01,0.0
624,11.69,0.51,4.55,-0.59,0.22,0.07,0.0
625,8.45,0.96,4.38,-0.48,0.01,-0.15,0.0
626,8.84,0.94,3.83,-0.84,0.04,-0.14,0.0
627,9.75,0.56,4.99,-0.81,0.03,-0.08,0.0
628,10.41,0.97,5.02,-0.47,0.16,0.08,0.0
629,11.99,1.77,3.73,-0.76,-0.32,0.0,0.0
630,8.08,0.88,3.96,-0.88,-0.01,-0.09,0.0
631,8.79,1.21,3.89,-0.51,-0.08,0.01,0.0
632,10.07,1.13,4.58,-0.48,0.04,0.02,0.0
633,9.88,1.5,5.21,-0.52,0.22,-0.01,0.0
634,8.26,1.04,4.42,-0.56,0.17,-0.17,0.0
635,9.04,0.62,4.27,-0.85,-0.01,-0.15,0.0
636,9.92,0.68,5.14,-0.69,0.09,-0.12,0.0
637,11.33,0.76,4.26,-0.71,0.24,-0.0,0.0
638,11.9,1.54,3.98,-0.76,-0.44,0.03,0.0
639,8.33,1.04,4.01,-0.8,-0.01,-0.03,0.0
640,8.52,1.21,3.72,-0.45,-0.04,0.05,0.0
641,10.19,0.76,4.39,-0.5,0.03,0.1,0.0
642,8.48,0.65,4.4,-0.68,0.24,-0.14,0.0
643,8.83,0.77,4.17,-0.77,-0.05,-0.09,0.0
644,9.35,0.21,5.15,-0.83,0.15,-0.12,0.0
645,11.74,1.55,3.6,-0.78,-0.4,0.0,0.0
646,8.26,0.81,4.34,-0.7,-0.0,-0.06,0.0
647,8.88,0.68,4.22,-0.5,-0.03,-0.02,0.0
648,10.26,1.19,4.62,-0.38,0.08,0.02,0.0
649,11.39,0.49,4.63,-0.51,0.29,0.16,0.0
650,8.48,0.57,4.35,-0.69,0.09,-0.14,0.0
651,8.79,0.54,3.83,-0.87,-0.06,-0.16,0.0
652,9.97,0.24,4.84,-0.81,-0.06,-0.16,0.0
653,10.83,0.96,4.68,-0.56,0.26,0.01,0.0
654,11.22,1.55,3.58,-0.64,-0.42,-0.0,0.0
655,8.4,1.08,3.83,-0.6,-0.08,-0.0,0.0
656,8.88,1.41,4.03,-0.35,0.01,0.02,0.0
657,10.12,1.16,4.71,-0.45,0.12,0.08,0.0
658,8.35,0.98,4.45,-0.89,0.25,-0.16,0.0
659,8.9,0.35,4.39,-0.91,-0.1,-0.14,0.0
660,9.47,-0.02,5.3,-0.84,0.07,-0.07,0.0
661,11.63,0.75,5.46,-0.43,0.19,0.03,0.0
662,11.86,1.5,3.95,-0.63,-0.34,0.03,0.0
663,7.94,1.07,4.31,-0.69,-0.19,-0.02,0.0
664,8.54,1.13,4.3,-0.48,-0.03,-0.01,0.0
665,10.1,1.64,5.22,-0.47,0.12,-0.02,0.0
666,11.65,0.59,4.94,-0.64,0.17,0.11,0.0
667,8.28,0.62,4.37,-0.63,0.05,-0.14,0.0
668,8.63,0.62,4.2,-0.76,0.05,-0.1,0.0
669,9.76,0.28,5.1,-0.62,0.03,-0.08,0.0
670,11.33,0.75,4.92,-0.47,0.14,0.05,0.0
671,11.58,1.42,3.96,-0.71,-0.31,-0.04,0.0
672,8.18,1.22,4.29,-0.86,-0.12,-0.01,0.0
673,8.54,0.82,3.97,-0.38,-0.05,0.06,0.0
674,9.96,1.88,4.91,-0.37,0.07,0.03,0.0
675,11.3,0.79,4.83,-0.6,0.21,0.07,0.0
676,8.43,0.94,4.27,-0.56,0.14,-0.14,0.0
677,8.46,0.77,4.16,-0.73,0.04,-0.13,0.0
678,10.17,0.37,5.04,-0.69,-0.06,-0.05,0.0
679,11.33,1.53,3.82,-0.73,-0.29,-0.02,0.0
680,8.26,0.54,4.3,-0.78,-0.04,-0.08,0.0
681,8.91,1.35,3.9,-0.33,-0.08,0.0,0.0
682,10.07,1.18,4.93,-0.4,0.1,0.05,0.0
683,10.8,1.17,5.5,-0.67,0.22,0.07,0.0
684,8.42,1.15,3.96,-0.61,0.08,-0.16,0.0
685,8.72,1.16,4.19,-0.8,-0.08,-0.1,0.0
686,9.89,0.37,4.93,-0.8,-0.03,-0.07,0.0
687,10.98,0.93,4.63,-0.61,0.37,0.09,0.0
688,12.06,1.49,3.75,-0.58,-0.39,0.09,0.0
689,8.11,1.03,4.18,-0.76,-0.07,0.01,0.0
690,8.78,1.45,4.06,-0.43,-0.1,0.04,0.0
691,10.25,0.87,4.84,-0.39,0.14,0.0,0.0
692,11.5,0.67,4.86,-0.6,0.31,0.17,0.0
693,8.23,0.64,4.41,-0.69,0.04,-0.15,0.0
694,8.64,0.49,4.23,-0.87,0.08,-0.12,0.0
695,9.6,-0.01,4.68,-0.75,0.11,-0.09,0.0
696,11.59,0.81,5.0,-0.68,0.33,-0.07,0.0
697,12.11,1.46,3.75,-0.86,-0.26,-0.15,0.0
698,8.57,0.88,4.46,-0.7,-0.03,-0.06,0.0
699,8.75,1.42,4.33,-0.39,-0.06,0.01,0.0
700,10.08,0.98,5.0,-0.44,0.04,0.07,0.0
701,10.94,0.74,5.52,-0.6,0.19,0.16,0.0
702,8.12,1.07,4.13,-0.49,-0.0,-0.15,0.0
703,8.77,0.57,3.97,-0.85,-0.1,-0.12,0.0
704,9.7,0.08,4.8,-0.87,0.06,-0.1,0.0
705,11.48,0.79,4.82,-0.56,0.26,0.0,0.0
706,11.61,1.73,3.69,-0.65,-0.21,-0.07,0.0
707,8.5,1.12,4.28,-0.59,-0.08,-0.01,0.0
708,8.69,1.43,3.99,-0.48,-0.05,0.03,0.0
709,9.27,1.06,5.04,-0.45,0.11,0.03,0.0
710,10.32,1.43,5.33,-0.47,0.14,0.05,0.0
711,8.45,0.96,4.05,-0.65,0.04,-0.07,0.0
712,8.77,0.51,3.91,-0.82,0.08,-0.09,0.0
713,9.99,0.37,4.55,-0.8,-0.01,-0.09,0.0
714,10.18,0.46,4.48,-0.75,0.09,-0.08,0.0
715,11.37,0.52,4.75,-0.59,0.2,-0.04,0.0
716,12.06,1.78,3.67,-0.68,-0.23,-0.02,0.0
717,8.67,1.13,4.11,-0.7,0.01,0.01,0.0
718,9.06,1.5,4.39,-0.3,-0.07,0.14,0.0
719,8.57,1.21,4.19,-0.44,0.05,0.06,0.0
720,9.6,0.78,4.86,-0.48,0.07,0.04,0.0
721,8.34,1.02,4.26,-0.49,0.07,-0.06,0.0
722,8.67,0.74,4.19,-0.8,0.06,-0.13,0.0
723,9.97,0.43,5.12,-0.88,0.08,-0.17,0.0
724,10.76,0.78,5.11,-0.73,0.32,-0.07,0.0
725,8.42,0.92,4.24,-0.73,-0.25,-0.03,0.0
726,8.59,1.15,4.16,-0.42,-0.06,0.15,0.0
727,10.1,1.51,5.47,-0.43,-0.02,-0.03,0.0
728,8.27,1.0,4.2,-0.65,0.0,-0.07,0.0
729,8.58,0.35,4.0,-0.95,0.03,-0.16,0.0
730,9.67,-0.04,4.91,-0.96,0.01,-0.13,0.0
731,11.45,1.63,3.84,-0.39,-0.24,0.1,0.0
732,8.36,0.89,3.87,-0.57,-0.16,0.02,0.0
733,9.32,1.64,3.95,-0.48,-0.09,-0.04,0.0
734,9.77,1.22,5.32,-0.61,0.25,-0.07,0.0
735,8.29,1.28,4.42,-0.59,-0.02,-0.05,0.0
736,8.49,0.23,3.95,-0.87,0.06,-0.14,0.0
737,10.13,0.31,5.04,-0.73,-0.02,-0.12,0.0
738,11.29,0.85,4.78,-0.61,0.21,-0.02,0.0
739,8.56,1.13,4.01,-0.67,-0.13,-0.03,0.0
740,8.92,1.41,3.66,-0.51,-0.12,0.05,0.0
741,10.41,0.97,4.66,-0.54,0.08,0.07,0.0
742,8.37,0.56,3.59,-0.56,0.0,-0.1,0.0
743,9.03,0.64,3.66,-0.71,-0.1,-0.11,0.0
744,10.55,0.31,4.4,-0.51,-0.08,0.07,0.0
745,11.65,1.36,3.03,-0.68,-0.25,0.04,0.0
746,8.97,0.6,3.29,-0.82,-0.06,-0.07,0.0
747,9.07,0.72,3.52,-0.54,0.04,-0.04,0.0
748,10.13,1.1,4.49,-0.56,0.1,-0.09,0.0
749,9.04,0.94,3.59,-0.72,0.09,-0.11,0.0
750,9.49,0.2,3.48,-0.73,-0.08,-0.03,0.0
751,9.03,0.28,3.41,-0.82,0.04,0.01,0.0
752,9.73,-0.08,4.25,-0.77,0.08,-0.02,0.0
753,9.75,0.19,4.78,-0.49,0.25,0.06,0.0
754,11.05,0.77,4.07,-0.56,0.2,0.0,0.0
755,11.17,0.83,3.38,-0.79,-0.49,-0.07,0.0
756,8.75,0.46,3.53,-0.75,-0.14,-0.11,0.0
757,9.06,0.98,3.34,-0.48,-0.01,-0.05,0.0
758,10.32,1.2,4.3,-0.53,0.14,0.0,0.0
759,11.27,0.94,4.66,-0.53,0.15,0.11,0.0
760,8.28,0.21,3.63,-0.74,0.01,-0.14,0.0
761,9.06,0.37,3.55,-0.89,-0.0,-0.17,0.0
762,10.18,0.36,4.27,-0.62,-0.03,-0.12,0.0
763,11.15,0.46,4.13,-0.67,0.48,-0.03,0.0
764,11.25,1.49,3.58,-0.71,-0.23,-0.09,0.0
765,8.62,0.87,3.76,-0.69,-0.04,-0.06,0.0
766,9.0,1.46,3.65,-0.43,-0.01,0.04,0.0
767,10.27,1.27,4.58,-0.42,0.11,0.06,0.0
768,8.53,0.92,3.36,-0.7,-0.03,-0.11,0.0
769,8.92,0.74,3.52,-0.73,0.0,-0.03,0.0
770,10.31,0.12,4.31,-0.71,0.09,-0.08,0.0
771,11.49,0.72,4.19,-0.69,0.34,-0.04,0.0
772,11.69,1.46,3.29,-0.67,-0.28,-0.04,0.0
773,8.61,0.56,3.82,-0.67,-0.01,0.0,0.0
774,9.04,1.49,3.53,-0.38,-0.09,0.02,0.0
775,10.43,0.87,4.27,-0.42,0.15,0.05,0.0
776,11.6,0.73,4.64,-0.46,0.19,0.18,0.0
777,8.25,0.82,4.19,-0.86,0.11,-0.19,0.0
778,8.82,0.91,4.14,-0.76,0.02,-0.21,0.0
779,10.25,0.77,4.62,-0.69,0.07,-0.05,0.0
780,11.17,2.54,3.85,-0.59,-0.22,-0.06,0.0
781,8.3,0.98,4.24,-0.74,-0.13,-0.02,0.0
782,8.45,1.5,3.93,-0.47,-0.1,0.06,0.0
783,9.66,0.83,4.69,-0.46,0.03,0.07,0.0
784,9.82,1.52,5.15,-0.41,0.14,0.08,0.0
785,11.29,0.44,5.1,-0.45,0.26,0.25,0.0
786,8.2,0.6,4.0,-0.83,-0.02,-0.1,0.0
787,9.4,0.08,4.25,-0.92,0.05,-0.12,0.0
788,9.81,0.14,4.86,-0.61,-0.18,-0.15,0.0
789,10.25,0.05,4.88,-0.55,-0.02,-0.09,0.0
790,11.6,0.66,4.88,-0.53,0.34,0.01,0.0
791,8.54,0.49,3.92,-0.72,-0.07,0.02,0.0
792,9.1,1.61,3.82,-0.43,-0.16,0.04,0.0
793,8.8,0.97,3.89,-0.42,-0.02,0.02,0.0
794,10.29,0.72,4.77,-0.49,0.15,0.13,0.0
795,8.12,0.7,4.32,-0.69,0.1,-0.11,0.0
796,8.71,0.17,3.97,-0.83,-0.06,-0.08,0.0
797,9.86,0.37,5.13,-0.72,-0.18,-0.07,0.0
798,10.86,0.88,4.28,-0.68,0.25,-0.09,0.0
799,11.47,1.36,3.63,-0.73,-0.17,0.04,0.0
800,8.51,0.98,4.16,-0.72,0.23,-0.05,0.0
801,8.66,1.25,4.46,-0.37,0.0,0.09,0.0
802,7.98,0.66,4.41,-0.86,0.09,-0.18,0.0
803,8.56,0.4,4.4,-0.98,-0.05,-0.26,0.0
804,9.54,0.05,5.41,-0.69,0.08,-0.09,0.0
805,11.18,1.21,5.21,-0.49,0.17,-0.01,0.0
806,12.04,1.66,3.86,-0.59,-0.38,0.06,0.0
807,7.91,1.07,4.55,-0.61,-0.02,0.03,0.0
808,8.44,1.2,4.24,-0.34,-0.05,0.07,0.0
809,10.24,1.03,4.9,-0.45,-0.11,0.11,0.0
810,10.95,0.83,5.08,-0.69,0.22,0.1,0.0
811,8.15,0.25,4.3,-0.72,0.17,-0.05,0.0
812,8.6,0.21,4.36,-0.84,0.01,-0.18,0.0
813,9.42,-0.12,4.88,-0.81,0.02,-0.15,0.0
814,11.31,0.66,4.92,-0.4,0.14,0.04,0.0
815,8.38,0.72,4.6,-0.8,0.16,-0.03,0.0
816,8.48,1.2,4.65,-0.4,-0.1,0.04,0.0
817,9.88,0.62,5.1,-0.58,0.01,-0.05,0.0
818,11.18,0.21,5.17,-0.71,0.27,0.09,0.0
819,8.1,0.8,4.61,-0.67,0.14,-0.16,0.0
820,9.53,0.34,4.64,-0.8,-0.14,-0.11,0.0
821,8.43,0.57,4.45,-0.85,0.16,-0.09,0.0
822,9.52,0.05,4.87,-0.8,0.02,-0.06,0.0
823,10.88,0.83,4.92,-0.61,0.27,-0.13,0.0
824,11.61,1.31,3.98,-0.65,-0.3,0.05,0.0
825,8.47,0.83,4.57,-0.62,-0.02,0.01,0.0
826,8.76,1.42,4.64,-0.31,-0.11,0.07,0.0
827,9.33,0.8,5.28,-0.42,-0.08,0.04,0.0
828,10.02,0.94,5.22,-0.49,0.09,0.03,0.0
829,8.2,0.84,4.28,-0.76,-0.04,-0.11,0.0
830,9.02,0.1,3.93,-0.98,-0.12,-0.16,0.0
831,9.41,0.05,4.77,-0.95,0.08,-0.2,0.0
832,11.16,0.63,4.83,-0.64,0.16,0.04,0.0
833,11.99,1.69,3.56,-0.76,-0.23,0.01,0.0
834,8.4,0.71,4.43,-0.81,-0.02,-0.04,0.0
835,8.5,1.19,3.95,-0.37,-0.07,0.15,0.0
836,10.35,0.8,4.74,-0.42,0.0,0.01,0.0
837,11.15,0.32,4.87,-0.63,0.3,0.09,0.0
838,8.34,0.66,4.38,-0.64,0.11,-0.1,0.0
839,8.73,0.1,4.04,-0.85,0.04,-0.09,0.0
840,9.84,0.1,5.14,-0.71,0.02,-0.06,0.0
841,11.35,0.61,5.22,-0.58,0.2,0.04,0.0
842,11.66,1.53,3.88,-0.71,-0.44,-0.07,0.0
843,8.38,0.63,4.22,-0.74,-0.08,-0.08,0.0
844,9.19,1.32,3.92,-0.34,-0.1,0.04,0.0
845,8.55,0.97,3.84,-0.4,-0.01,0.01,0.0
846,10.47,0.75,4.82,-0.33,0.06,0.15,0.0
847,8.25,0.6,4.3,-0.72,0.15,-0.2,0.0
848,8.54,0.3,4.38,-0.87,0.14,-0.16,0.0
849,11.75,1.78,3.8,-0.73,-0.48,-0.06,0.0
850,8.3,1.03,4.15,-0.74,-0.24,-0.04,0.0
851,8.67,1.47,3.85,-0.57,-0.01,0.03,0.0
852,9.8,0.75,4.35,-0.43,-0.03,0.13,0.0
853,10.17,1.32,4.87,-0.47,0.06,0.12,0.0
854,8.44,0.58,4.18,-0.68,0.05,-0.07,0.0
855,8.62,0.57,4.25,-0.8,0.03,-0.09,0.0
856,10.26,0.3,4.87,-0.49,-0.01,-0.01,0.0
857,8.27,0.57,3.79,-0.83,-0.16,0.07,0.0
858,9.34,1.34,3.46,-0.39,-0.17,0.01,0.0
859,9.01,0.99,3.55,-0.44,-0.11,-0.01,0.0
860,10.44,1.18,4.57,-0.46,0.1,-0.02,0.0
861,8.6,0.35,4.01,-0.77,0.2,-0.07,0.0
862,8.84,0.18,4.03,-0.83,-0.05,-0.13,0.0
863,9.5,-0.09,4.32,-0.88,-0.01,-0.13,0.0
864,11.78,0.87,5.08,-0.39,0.21,0.02,0.0
865,11.93,1.34,3.51,-0.74,-0.38,-0.02,0.0
866,8.34,0.79,3.97,-0.72,-0.18,-0.12,0.0
867,8.83,0.95,3.63,-0.4,0.04,0.02,0.0
868,10.15,0.77,4.56,-0.35,0.23,0.13,0.0
869,7.9,0.6,4.55,-0.6,-0.07,-0.12,0.0
870,10.21,0.32,4.37,-0.67,-0.27,-0.14,0.0
871,8.39,0.73,4.14,-0.74,0.11,-0.2,0.0
872,10.04,0.63,4.95,-0.76,0.08,-0.19,0.0
873,8.2,0.96,4.32,-0.85,-0.09,-0.05,0.0
874,8.72,1.49,3.83,-0.47,-0.17,-0.04,0.0
875,10.0,1.04,4.95,-0.42,0.02,0.06,0.0
876,11.94,1.02,4.81,-0.68,0.07,0.14,0.0
877,8.2,1.36,4.25,-0.48,0.02,-0.05,0.0
878,8.64,0.77,4.18,-0.85,0.01,-0.13,0.0
879,9.72,0.5,4.71,-0.81,-0.1,-0.18,0.0
880,10.12,0.45,4.95,-0.76,-0.0,-0.17,0.0
881,11.16,0.93,4.83,-0.51,0.14,-0.0,0.0
882,8.46,0.8,3.95,-0.72,-0.11,0.01,0.0
883,8.87,1.74,3.85,-0.36,-0.01,0.07,0.0
884,8.44,0.81,4.12,-0.78,0.03,-0.15,0.0
885,8.88,0.45,4.13,-0.9,-0.1,-0.13,0.0
886,9.78,0.02,4.41,-0.86,-0.02,-0.18,0.0
887,10.19,0.08,4.71,-0.65,0.06,-0.08,0.0
888,8.27,0.96,4.02,-0.61,-0.09,-0.0,0.0
889,8.66,1.46,3.88,-0.32,-0.14,0.11,0.0
890,9.92,1.5,4.94,-0.67,-0.0,0.03,0.0
891,8.28,0.48,4.09,-0.56,0.03,-0.05,0.0
892,8.75,0.46,3.96,-0.74,-0.01,-0.1,0.0
893,9.56,0.26,4.78,-0.72,0.03,-0.05,0.0
894,10.15,0.1,5.01,-0.58,0.04,-0.02,0.0
895,11.48,0.88,4.63,-0.54,0.37,-0.03,0.0
896,11.76,1.66,3.44,-0.7,-0.36,-0.06,0.0
897,8.31,1.02,3.98,-0.7,-0.13,-0.07,0.0
898,8.59,1.39,3.66,-0.43,-0.02,0.01,0.0
899,10.65,0.99,4.77,-0.47,0.09,0.03,0.0
900,8.09,1.04,4.22,-0.62,0.04,-0.1,0.0
901,8.55,0.75,4.4,-0.9,-0.04,-0.14,0.0
902,9.64,0.49,5.09,-0.74,-0.13,-0.08,0.0
903,12.29,1.67,3.37,-0.58,-0.36,0.06,0.0
904,8.54,0.84,4.07,-0.7,-0.03,0.01,0.0
905,8.94,1.7,3.96,-0.4,-0.02,0.04,0.0
906,9.67,1.31,5.09,-0.41,0.14,0.03,0.0
907,8.49,0.74,4.1,-0.61,0.09,-0.17,0.0
908,8.8,0.64,4.07,-0.89,0.06,-0.22,0.0
909,9.99,1.35,4.59,-0.76,0.25,-0.12,0.0
910,11.04,1.34,4.58,-0.77,0.23,-0.14,0.0
911,8.39,1.11,4.13,-0.69,-0.08,0.01,0.0
912,8.45,1.3,4.16,-0.51,0.05,0.01,0.0
913,10.18,1.02,4.9,-0.47,-0.08,0.13,0.0
914,8.13,0.5,4.22,-0.61,0.02,-0.09,0.0
915,8.71,0.62,4.3,-0.83,0.02,-0.15,0.0
916,9.72,0.34,5.03,-0.62,-0.08,-0.07,0.0
917,11.1,0.94,5.11,-0.54,0.15,-0.04,0.0
918,12.02,1.65,3.81,-0.67,-0.31,-0.0,0.0
919,8.45,1.14,4.12,-0.72,-0.02,-0.04,0.0
920,9.08,1.55,3.98,-0.34,-0.1,0.11,0.0
921,10.27,1.07,4.61,-0.46,0.09,0.07,0.0
922,11.31,0.58,4.96,-0.61,0.23,0.11,0.0
923,8.43,0.48,3.96,-0.71,0.09,-0.16,0.0
924,8.64,0.61,3.89,-0.95,0.06,-0.16,0.0
925,9.94,0.36,4.8,-0.68,-0.09,-0.1,0.0
926,8.44,0.97,3.68,-0.63,-0.07,0.06,0.0
927,9.2,1.76,3.8,-0.3,-0.03,0.06,0.0
928,8.79,1.34,3.94,-0.36,0.09,0.03,0.0
929,9.82,1.55,4.86,-0.58,0.05,0.07,0.0
930,10.23,1.68,5.01,-0.64,0.09,0.02,0.0
931,8.41,0.51,4.1,-0.66,0.32,-0.07,0.0
932,9.46,0.22,4.01,-0.82,-0.0,-0.15,0.0
933,8.64,0.46,4.17,-0.83,-0.01,-0.17,0.0
934,9.37,0.14,4.9,-0.9,0.03,-0.24,0.0
935,11.46,1.66,3.85,-0.73,-0.24,-0.03,0.0
936,8.28,0.62,4.28,-0.84,-0.01,-0.02,0.0
937,8.79,1.06,4.37,-0.56,-0.07,-0.04,0.0
938,9.98,1.52,5.19,-0.65,-0.03,-0.06,0.0
939,10.83,1.07,5.31,-0.74,0.21,-0.06,0.0
940,8.29,1.19,4.03,-0.52,-0.03,-0.11,0.0
941,8.62,0.89,4.4,-0.82,-0.06,-0.1,0.0
942,9.69,0.8,5.0,-0.84,0.08,-0.17,0.0
943,11.09,1.14,4.86,-0.68,0.3,0.0,0.0
944,11.43,1.83,3.62,-0.72,-0.3,-0.1,0.0
945,8.59,1.13,4.26,-0.71,-0.11,-0.06,0.0
946,8.77,1.59,4.09,-0.16,-0.05,-0.03,0.0
947,10.0,1.8,4.93,-0.38,0.09,0.12,0.0
948,12.41,1.03,4.64,-0.71,0.3,0.25,0.0
949,8.13,1.1,4.27,-0.77,0.01,-0.13,0.0
950,8.71,0.82,4.43,-1.05,0.03,-0.2,0.0
951,9.35,0.61,4.97,-0.87,0.03,-0.16,0.0
952,10.94,1.0,5.04,-0.55,0.38,0.04,0.0
953,11.12,2.19,3.74,-0.67,-0.42,-0.05,0.0
954,8.09,0.94,4.14,-0.67,-0.07,-0.04,0.0
955,9.25,1.99,4.47,-0.31,-0.07,0.03,0.0
956,9.48,1.68,5.44,-0.5,0.17,-0.01,0.0
957,8.13,1.07,4.18,-0.77,-0.02,-0.09,0.0
958,9.51,0.43,4.5,-0.92,-0.12,-0.14,0.0
959,10.1,0.28,5.18,-0.64,-0.05,-0.01,0.0
960,11.29,0.83,5.04,-0.58,0.27,0.06,0.0
961,11.76,1.41,3.68,-0.61,-0.24,0.03,0.0
962,8.18,0.38,4.48,-0.57,0.13,-0.01,0.0
963,8.6,1.52,4.3,-0.2,-0.06,-0.02,0.0
964,9.72,0.99,5.16,-0.35,0.0,0.04,0.0
965,9.85,1.29,5.54,-0.43,0.22,0.02,0.0
966,11.19,0.74,4.99,-0.65,0.24,0.21,0.0
967,8.03,0.91,4.32,-0.83,-0.06,-0.21,0.0
968,8.69,0.55,4.16,-0.85,-0.11,-0.1,0.0
969,10.3,0.57,4.71,-0.75,0.02,-0.03,0.0
970,10.87,0.79,4.6,-0.3,0.39,0.11,0.0
971,11.46,1.5,3.88,-0.54,-0.38,0.02,0.0
972,8.36,0.55,4.0,-0.72,-0.11,-0.03,0.0
973,9.45,1.46,4.16,-0.47,-0.03,-0.11,0.0
974,8.93,0.98,4.33,-0.47,-0.02,-0.1,0.0
975,10.05,1.04,5.05,-0.49,0.16,-0.0,0.0
976,8.38,0.81,4.24,-0.81,0.04,-0.17,0.0
977,8.66,0.5,4.41,-0.87,0.11,-0.11,0.0
978,9.64,0.38,5.36,-0.52,0.2,0.01,0.0
979,11.41,0.77,5.36,-0.58,0.21,-0.02,0.0
980,10.83,1.87,4.32,-0.75,-0.3,-0.09,0.0
981,8.26,0.66,4.65,-0.74,-0.06,-0.02,0.0
982,8.77,1.16,4.5,-0.36,-0.23,0.07,0.0
983,10.03,1.14,4.77,-0.44,0.01,0.08,0.0
984,8.42,0.61,4.25,-0.68,0.12,-0.15,0.0
985,8.86,0.41,4.0,-0.72,-0.06,-0.14,0.0
986,9.82,0.21,5.16,-0.74,0.06,-0.13,0.0
987,11.35,0.86,4.77,-0.58,0.35,-0.1,0.0
988,8.13,1.07,4.31,-0.63,-0.07,0.01,0.0
989,8.66,1.46,4.11,-0.43,-0.05,0.13,0.0
990,10.12,1.21,5.07,-0.65,0.14,0.02,0.0
991,11.37,0.5,4.62,-0.72,0.29,0.03,0.0
992,8.46,1.01,4.0,-0.59,-0.13,-0.18,0.0
993,8.87,1.03,4.18,-0.89,-0.03,-0.19,0.0
994,10.07,0.45,5.05,-0.65,0.11,0.08,0.0
995,11.18,0.89,5.17,-0.52,0.22,0.18,0.0
996,8.74,0.61,4.05,-0.81,-0.1,0.01,0.0
997,8.87,1.27,4.16,-0.48,-0.06,0.1,0.0
998,9.18,0.49,4.41,-0.42,-0.03,0.03,0.0
999,9.73,0.84,4.77,-0.35,-0.02,0.08,0.0
1000,8.63,0.63,3.98,-0.68,0.02,-0.17,0.0
1001,9.07,0.48,4.25,-0.83,0.01,-0.09,0.0
1002,10.06,0.51,4.85,-0.61,0.1,-0.04,0.0
1003,11.41,0.54,5.32,-0.57,0.28,0.02,0.0
1004,8.67,1.11,4.06,-0.65,-0.22,-0.07,0.0
1005,8.79,1.31,3.84,-0.39,-0.08,0.04,0.0
1006,10.03,1.36,4.58,-0.5,0.22,0.02,0.0
1007,9.87,1.46,5.06,-0.56,0.27,-0.02,0.0
1008,8.46,0.75,4.27,-0.66,-0.01,-0.15,0.0
1009,8.78,0.71,4.25,-0.96,-0.06,-0.15,0.0
1010,9.33,0.14,4.65,-0.97,0.08,-0.18,0.0
1011,9.71,0.07,4.87,-0.79,0.09,-0.1,0.0
1012,11.3,0.9,5.03,-0.5,0.21,0.02,0.0
1013,11.24,1.69,3.96,-0.69,-0.25,-0.02,0.0
1014,8.26,0.79,4.36,-0.63,0.09,-0.03,0.0
1015,8.52,1.27,4.11,-0.43,-0.09,0.01,0.0
1016,10.16,0.96,4.83,-0.45,0.09,0.05,0.0
1017,8.1,0.66,4.33,-0.82,0.03,-0.21,0.0
1018,8.49,0.62,4.5,-0.88,0.05,-0.13,0.0
1019,9.72,0.4,4.87,-0.84,0.15,-0.13,0.0
1020,9.68,0.41,5.31,-0.74,0.07,-0.08,0.0
1021,11.32,0.61,5.37,-0.57,0.23,0.01,0.0
1022,11.76,1.92,3.74,-0.69,-0.31,-0.09,0.0
1023,8.35,1.26,4.11,-0.67,-0.15,-0.08,0.0
1024,8.6,1.73,3.83,-0.39,-0.06,-0.03,0.0
1025,10.11,1.3,4.91,-0.49,0.2,0.09,0.0
1026,10.63,1.41,5.38,-0.49,0.22,0.18,0.0
1027,8.2,0.85,4.2,-0.75,0.03,-0.11,0.0
1028,8.74,0.52,4.13,-0.82,0.01,-0.07,0.0
1029,9.93,0.76,4.99,-0.63,0.09,-0.07,0.0
1030,11.44,1.1,5.05,-0.44,0.25,0.13,0.0
1031,11.93,1.55,3.68,-0.81,-0.36,0.02,0.0
1032,7.9,0.84,4.28,-0.79,-0.18,0.05,0.0
1033,8.72,1.04,4.15,-0.51,-0.11,-0.03,0.0
1034,10.29,0.8,4.58,-0.36,0.1,0.06,0.0
1035,10.97,1.33,5.42,-0.54,0.2,0.07,0.0
1036,8.28,0.97,4.26,-0.76,0.07,-0.09,0.0
1037,9.45,0.4,4.35,-0.88,-0.19,-0.07,0.0
1038,8.93,0.23,4.28,-0.78,-0.04,-0.04,0.0
1039,10.29,0.17,5.0,-0.81,0.11,-0.11,0.0
1040,11.13,0.79,4.9,-0.52,0.36,-0.0,0.0
1041,8.37,1.02,4.56,-0.63,-0.04,-0.03,0.0
1042,8.82,1.57,4.35,-0.38,-0.17,0.03,0.0
1043,10.23,1.26,5.15,-0.59,0.04,0.03,0.0
1044,11.23,0.85,5.49,-0.58,0.23,0.06,0.0
1045,7.74,1.14,4.58,-0.64,0.03,-0.08,0.0
1046,8.73,0.58,4.3,-0.85,-0.08,-0.11,0.0
1047,9.89,0.44,5.16,-0.76,0.03,-0.16,0.0
1048,11.56,1.2,4.88,-0.61,0.17,0.02,0.0
1049,12.11,2.15,3.41,-0.85,-0.32,-0.15,0.0
1050,8.44,0.97,4.44,-0.75,0.06,0.0,0.0
1051,8.82,1.55,4.45,-0.32,-0.05,0.04,0.0
1052,8.4,1.17,4.3,-0.68,0.11,-0.11,0.0
1053,8.48,1.0,4.55,-0.91,-0.15,-0.15,0.0
1054,9.48,0.69,5.41,-0.92,-0.17,-0.15,0.0
1055,11.58,2.2,3.72,-0.67,-0.24,-0.02,0.0
1056,8.4,1.17,4.38,-0.71,-0.06,-0.05,0.0
1057,8.94,1.95,4.4,-0.24,-0.1,0.02,0.0
1058,9.44,1.61,5.5,-0.46,0.11,0.03,0.0
1059,7.75,1.07,4.7,-0.87,0.14,-0.19,0.0
1060,8.93,0.43,4.84,-0.79,-0.07,-0.11,0.0
1061,8.28,0.73,4.83,-0.82,-0.02,-0.14,0.0
1062,9.94,0.59,5.61,-0.65,0.0,-0.05,0.0
1063,11.59,0.77,5.39,-0.41,0.21,0.17,0.0
1064,11.1,1.54,4.03,-0.61,-0.44,-0.0,0.0
1065,8.47,0.96,4.25,-0.58,-0.29,-0.02,0.0
1066,8.61,1.08,3.89,-0.45,-0.1,-0.04,0.0
1067,11.58,0.55,4.66,-0.62,0.17,0.09,0.0
1068,8.43,0.53,3.87,-0.68,0.01,-0.14,0.0
1069,8.74,0.67,4.12,-0.85,-0.02,-0.15,0.0
1070,9.86,0.58,4.78,-0.58,0.01,-0.05,0.0
1071,10.16,0.42,4.53,-0.53,0.05,0.01,0.0
1072,10.28,0.26,5.0,-0.52,0.06,0.03,0.0
1073,11.15,1.86,3.84,-0.64,-0.29,-0.02,0.0
1074,8.31,0.82,4.19,-0.71,-0.1,-0.04,0.0
1075,9.17,1.61,4.09,-0.35,0.03,-0.05,0.0
1076,10.02,1.09,4.82,-0.24,0.23,0.06,0.0
1077,8.03,0.03,4.2,-0.9,0.06,-0.04,0.0
1078,9.82,0.96,4.51,-0.77,-0.08,-0.11,0.0
1079,8.47,-0.01,4.23,-0.78,0.01,-0.09,0.0
1080,9.77,0.62,5.07,-0.71,0.1,-0.07,0.0
1081,9.75,0.25,5.17,-0.68,0.18,-0.05,0.0
1082,11.73,0.17,5.16,-0.7,0.3,-0.14,0.0
1083,10.61,1.74,4.36,-0.66,-0.2,-0.17,0.0
1084,8.66,0.61,3.66,-0.77,-0.15,0.01,0.0
1085,8.71,0.83,4.5,-0.55,-0.06,0.02,0.0
1086,9.79,0.7,5.5,-0.48,0.13,-0.03,0.0
1087,11.8,0.06,5.13,-0.59,0.2,0.04,0.0
1088,8.36,0.72,4.17,-0.51,0.02,0.02,0.0
1089,8.53,0.59,4.11,-0.75,0.05,-0.07,0.0
1090,10.12,0.36,5.16,-0.79,0.12,-0.16,0.0
1091,11.04,0.83,5.43,-0.82,0.28,-0.25,0.0
1092,8.49,1.01,4.04,-0.69,-0.19,0.07,0.0
1093,8.75,0.88,4.28,-0.4,-0.02,0.13,0.0
1094,9.74,1.22,5.18,-0.49,0.26,0.01,0.0
1095,12.17,-0.03,4.9,-0.59,0.28,0.18,0.0
1096,8.09,0.97,4.35,-0.55,0.1,-0.07,0.0
1097,8.61,0.51,4.07,-0.79,-0.02,-0.09,0.0
1098,9.39,0.25,4.76,-0.87,-0.02,-0.12,0.0
1099,8.13,0.42,4.46,-0.86,-0.0,0.01,0.0
1100,9.0,1.61,4.51,-0.42,-0.18,-0.06,0.0
1101,9.96,1.32,5.13,-0.45,0.07,0.03,0.0
1102,8.33,0.62,4.07,-0.69,0.02,-0.08,0.0
1103,8.77,0.36,4.57,-0.74,0.03,-0.09,0.0
1104,9.76,0.22,5.13,-0.64,0.06,-0.08,0.0
1105,10.92,1.17,5.42,-0.37,0.14,0.09,0.0
1106,11.48,1.83,3.54,-0.78,-0.26,-0.14,0.0
1107,8.77,0.63,4.04,-0.69,0.11,-0.07,0.0
1108,8.25,0.74,4.16,-0.63,0.08,-0.1,0.0
1109,8.62,0.77,4.35,-0.91,-0.01,-0.19,0.0
1110,10.16,0.73,5.09,-0.89,-0.17,-0.17,0.0
1111,11.15,0.79,5.09,-0.62,0.43,0.05,0.0
1112,8.17,0.71,4.77,-0.75,0.04,-0.02,0.0
1113,8.45,1.17,4.27,-0.34,-0.06,0.1,0.0
1114,10.22,1.33,5.42,-0.63,0.11,-0.01,0.0
1115,8.23,0.49,4.26,-0.57,-0.06,-0.05,0.0
1116,8.79,0.43,4.04,-0.75,-0.01,-0.11,0.0
1117,9.85,0.48,5.19,-0.65,0.1,-0.12,0.0
1118,11.01,0.99,5.06,-0.53,0.31,-0.04,0.0
1119,11.38,1.78,4.03,-0.66,-0.32,-0.06,0.0
1120,8.37,0.9,4.47,-0.7,0.08,-0.02,0.0
1121,8.72,1.19,4.62,-0.35,-0.06,0.05,0.0
1122,9.19,1.03,5.03,-0.4,-0.02,0.04,0.0
1123,9.81,1.25,5.28,-0.44,0.01,0.02,0.0
1124,8.31,0.81,4.19,-0.62,-0.06,-0.02,0.0
1125,8.62,0.55,4.3,-0.88,0.07,-0.12,0.0
1126,10.03,0.61,5.12,-0.79,-0.0,-0.02,0.0
1127,11.27,0.56,4.89,-0.72,0.36,-0.04,0.0
1128,11.26,1.25,3.89,-0.7,-0.38,-0.01,0.0
1129,8.3,0.99,4.34,-0.71,-0.1,-0.09,0.0
1130,8.54,1.0,3.93,-0.38,0.04,-0.02,0.0
1131,10.03,1.46,5.24,-0.44,0.16,-0.01,0.0
1132,11.02,0.63,4.86,-0.59,0.26,0.15,0.0
1133,8.19,0.55,4.22,-0.75,0.02,-0.1,0.0
1134,8.65,0.46,4.22,-0.89,0.07,-0.15,0.0
1135,9.46,0.49,5.08,-0.92,-0.07,-0.2,0.0
1136,10.69,0.73,5.46,-0.44,0.28,0.06,0.0
1137,8.14,0.57,4.43,-0.69,-0.03,0.03,0.0
1138,8.76,1.54,4.42,-0.35,-0.11,0.01,0.0
1139,10.05,1.23,4.83,-0.38,-0.01,0.03,0.0
1140,11.44,0.8,4.81,-0.82,0.47,0.02,0.0
1141,12.11,1.49,3.62,-0.39,-0.49,0.05,0.0
1142,8.06,0.91,4.58,-0.7,0.16,-0.09,0.0
1143,9.21,0.22,4.72,-0.84,0.03,-0.08,0.0
1144,9.6,0.32,5.66,-0.68,-0.14,-0.02,0.0
1145,11.57,0.71,5.06,-0.35,0.17,0.08,0.0
1146,11.54,1.17,4.28,-0.72,-0.32,-0.0,0.0
1147,7.95,0.67,4.31,-0.76,0.03,-0.03,0.0
1148,8.66,1.41,4.41,-0.4,-0.02,0.03,0.0
1149,9.06,0.43,4.77,-0.47,-0.02,0.06,0.0
1150,11.57,0.44,5.38,-0.53,0.26,0.15,0.0
1151,7.94,0.73,3.9,-0.45,0.49,-0.15,0.0
1152,7.93,0.75,4.54,-0.7,0.03,-0.14,0.0
1153,8.45,0.57,4.49,-0.85,-0.01,-0.17,0.0
1154,10.15,0.43,5.4,-0.56,-0.01,-0.02,0.0
1155,10.53,0.81,4.59,-0.75,0.44,-0.02,0.0
1156,11.2,1.63,4.29,-0.73,-0.34,0.03,0.0
1157,8.03,0.96,4.24,-0.76,-0.08,-0.09,0.0
1158,8.8,1.82,4.39,-0.46,-0.05,-0.08,0.0
1159,9.89,1.5,5.48,-0.44,0.08,0.05,0.0
1160,8.11,0.85,4.4,-0.69,-0.02,-0.12,0.0
1161,8.54,0.54,4.81,-0.87,0.06,-0.17,0.0
1162,9.4,0.35,5.54,-0.77,0.02,-0.13,0.0
1163,11.01,0.33,5.54,-0.59,0.32,0.01,0.0
1164,8.48,0.95,4.29,-0.68,0.02,-0.04,0.0
1165,8.54,1.19,4.38,-0.48,-0.06,0.01,0.0
1166,9.78,1.09,5.35,-0.52,0.11,-0.02,0.0
1167,10.97,0.91,5.63,-0.61,0.09,0.11,0.0
1168,8.11,1.0,4.43,-0.68,0.02,-0.14,0.0
1169,8.65,0.51,4.31,-0.97,-0.14,-0.08,0.0
1170,9.65,0.1,4.71,-0.79,-0.0,-0.03,0.0
1171,11.46,0.87,5.3,-0.63,0.41,-0.05,0.0
1172,10.98,2.09,4.54,-0.6,-0.06,-0.16,0.0
1173,8.32,0.26,4.19,-0.91,-0.17,0.08,0.0
1174,8.69,0.42,3.94,-0.48,-0.09,0.12,0.0
1175,9.92,0.57,5.03,-0.51,0.07,0.02,0.0
1176,9.76,0.64,5.28,-0.51,0.07,0.0,0.0
1177,9.78,0.52,5.41,-0.51,0.14,-0.03,0.0
1178,11.1,-0.06,5.14,-0.64,0.26,-0.06,0.0
1179,8.66,1.14,3.52,-0.59,0.27,-0.2,0.0
1180,8.52,0.71,3.82,-0.56,-0.04,0.01,0.0
1181,9.15,-0.5,4.56,-0.93,0.09,-0.14,0.0
1182,11.97,-0.07,5.55,-0.67,0.37,-0.14,0.0
1183,10.85,1.41,4.27,-0.44,-0.04,-0.25,0.0
1184,8.96,1.73,5.17,-0.35,0.4,-0.01,0.0
1185,12.41,-0.2,4.84,-0.64,0.42,0.11,0.0
1186,7.98,0.81,3.33,-0.17,0.37,-0.01,0.0
1187,8.55,0.81,4.38,-0.4,0.08,-0.02,0.0
1188,8.57,0.94,4.48,-0.78,-0.07,-0.04,0.0
1189,9.56,0.31,5.14,-0.87,0.16,-0.07,0.0
1190,10.55,0.71,5.11,-0.72,0.38,-0.03,0.0
1191,11.2,1.48,4.37,-0.81,-0.22,-0.12,0.0
1192,7.99,0.79,4.71,-0.86,-0.01,-0.15,0.0
1193,8.44,1.34,5.04,-0.52,-0.05,-0.01,0.0
1194,10.06,1.29,5.64,-0.57,0.05,-0.02,0.0
1195,8.01,1.13,4.53,-0.47,-0.09,-0.04,0.0
1196,8.55,0.69,4.23,-0.82,-0.14,-0.17,0.0
1197,9.82,0.55,5.37,-0.78,0.05,-0.2,0.0
1198,10.92,1.11,5.1,-0.49,0.27,0.05,0.0
1199,11.44,2.23,4.03,-0.71,-0.32,-0.06,0.0
1200,7.95,1.09,4.54,-0.81,-0.04,-0.04,0.0
1201,8.42,1.12,4.1,-0.5,0.05,0.08,0.0
1202,10.14,1.08,4.97,-0.48,0.12,0.06,0.0
1203,9.32,1.56,5.58,-0.65,0.32,-0.03,0.0
1204,10.89,0.62,5.17,-0.73,0.31,0.05,0.0
1205,8.12,0.84,4.26,-0.6,-0.0,-0.1,0.0
1206,8.53,0.81,4.43,-0.77,-0.07,-0.15,0.0
1207,9.93,0.4,5.28,-0.68,0.01,-0.04,0.0
1208,10.75,0.51,5.19,-0.55,0.45,0.18,0.0
1209,8.43,0.83,4.07,-0.69,-0.23,-0.05,0.0
1210,9.0,1.36,3.49,-0.4,-0.07,0.02,0.0
1211,9.86,1.52,4.96,-0.49,0.2,0.06,0.0
1212,10.78,1.16,5.08,-0.67,0.32,0.05,0.0
1213,8.2,0.62,3.66,-0.65,0.16,-0.12,0.0
1214,8.97,0.7,4.16,-0.84,0.03,-0.17,0.0
1215,9.55,0.45,4.79,-0.79,0.1,-0.14,0.0
1216,11.06,0.79,5.28,-0.54,0.42,0.0,0.0
1217,8.25,0.82,3.92,-0.87,-0.03,-0.15,0.0
1218,9.33,1.87,4.02,-0.45,-0.05,-0.01,0.0
1219,8.85,1.44,4.38,-0.45,0.08,-0.08,0.0
1220,9.42,1.36,5.13,-0.36,0.12,-0.05,0.0
1221,12.03,1.03,5.38,-0.9,0.27,0.08,0.0
1222,8.03,1.17,4.64,-0.67,0.15,-0.05,0.0
1223,8.47,0.82,4.5,-0.77,-0.06,-0.08,0.0
1224,10.09,0.76,5.62,-0.51,-0.06,0.1,0.0
1225,11.36,0.47,4.97,-0.78,0.29,0.16,0.0
1226,12.45,1.57,3.75,-0.64,-0.4,0.01,0.0
1227,8.13,0.97,4.49,-0.7,0.04,-0.13,0.0
1228,8.28,1.13,4.81,-0.45,0.18,-0.09,0.0
1229,11.19,0.89,5.6,-0.56,0.01,0.14,0.0
1230,8.15,0.82,4.23,-0.62,0.04,-0.05,0.0
1231,8.52,0.62,4.32,-0.83,0.08,-0.13,0.0
1232,10.05,0.42,5.31,-0.63,0.08,-0.0,0.0
1233,10.95,0.78,5.28,-0.54,0.38,0.05,0.0
1234,10.86,2.08,4.01,-0.53,-0.44,0.01,0.0
1235,8.46,1.0,4.13,-0.77,-0.13,-0.11,0.0
1236,8.73,1.06,4.39,-0.66,-0.03,-0.13,0.0
1237,9.77,1.29,5.2,-0.6,-0.04,-0.02,0.0
1238,11.54,0.81,5.38,-0.65,0.28,0.12,0.0
1239,8.19,1.05,4.51,-0.68,0.09,-0.1,0.0
1240,8.42,0.84,4.69,-0.81,0.06,-0.23,0.0
1241,9.45,0.88,5.24,-0.62,0.03,-0.02,0.0
1242,12.06,2.09,3.88,-0.67,-0.53,0.02,0.0
1243,7.71,0.76,4.33,-0.82,-0.05,0.02,0.0
1244,8.99,1.87,4.29,-0.33,-0.02,0.03,0.0
1245,9.81,0.73,5.08,-0.46,0.03,0.13,0.0
1246,7.98,0.98,4.25,-0.69,0.09,-0.07,0.0
1247,8.4,0.52,4.42,-0.8,0.09,-0.1,0.0
1248,9.91,0.43,5.09,-0.63,-0.09,-0.06,0.0
1249,10.99,0.92,5.22,-0.57,0.25,-0.05,0.0
1250,11.54,2.24,3.97,-0.54,-0.4,0.01,0.0
1251,8.23,1.15,4.25,-0.66,-0.19,0.03,0.0
1252,9.08,1.96,4.19,-0.29,-0.1,0.06,0.0
1253,9.97,1.49,5.04,-0.38,0.12,0.07,0.0
1254,8.06,1.09,4.15,-0.7,-0.01,-0.05,0.0
1255,8.54,0.67,4.35,-0.93,0.11,-0.15,0.0
1256,9.72,0.27,5.33,-0.82,0.03,-0.1,0.0
1257,11.18,0.93,5.28,-0.6,0.28,-0.13,0.0
1258,11.53,2.0,4.01,-0.6,-0.3,0.02,0.0
1259,8.23,0.9,4.48,-0.66,0.05,0.04,0.0
1260,8.99,1.75,4.53,-0.23,-0.1,0.06,0.0
1261,9.71,1.67,5.47,-0.47,-0.01,-0.01,0.0
1262,11.49,0.93,5.14,-0.66,0.29,0.08,0.0
1263,8.28,1.26,4.16,-0.67,-0.0,0.02,0.0
1264,9.94,1.04,4.47,-0.79,-0.12,-0.11,0.0
1265,8.46,0.87,4.22,-0.87,-0.02,-0.1,0.0
1266,10.26,0.67,4.66,-0.75,-0.06,-0.03,0.0
1267,11.58,0.94,5.2,-0.61,0.38,-0.06,0.0
1268,11.45,2.1,3.74,-0.65,-0.25,-0.03,0.0
1269,8.09,0.97,4.57,-0.79,-0.0,-0.08,0.0
1270,8.39,1.34,4.51,-0.41,-0.06,0.01,0.0
1271,10.0,2.24,4.93,-0.53,-0.05,-0.05,0.0
1272,11.29,0.8,4.97,-0.67,0.24,0.11,0.0
1273,8.26,1.18,4.04,-0.64,0.07,-0.07,0.0
1274,9.22,0.69,4.44,-0.78,0.03,-0.16,0.0
1275,8.6,0.88,4.34,-0.83,0.11,-0.22,0.0
1276,10.87,1.13,5.41,-0.53,0.38,-0.02,0.0
1277,11.04,2.25,4.01,-0.67,-0.42,-0.12,0.0
1278,8.27,1.39,4.54,-0.68,-0.19,-0.0,0.0
1279,8.68,1.67,4.41,-0.43,0.11,0.08,0.0
1280,9.77,1.44,5.08,-0.42,0.05,0.07,0.0
1281,9.71,1.78,5.71,-0.5,0.15,0.03,0.0
1282,8.13,1.27,4.4,-0.75,-0.13,-0.09,0.0
1283,8.65,1.18,4.14,-0.79,0.08,-0.12,0.0
1284,9.44,0.91,5.06,-0.85,0.12,-0.09,0.0
1285,9.88,0.45,5.32,-0.65,0.13,-0.0,0.0
1286,11.44,1.09,5.38,-0.41,0.25,0.12,0.0
1287,11.35,1.89,3.84,-0.55,-0.32,0.01,0.0
1288,8.47,1.11,4.69,-0.78,0.05,-0.04,0.0
1289,8.49,1.46,4.3,-0.43,-0.09,-0.01,0.0
1290,9.65,1.22,5.41,-0.4,-0.01,0.04,0.0
1291,11.23,0.9,5.25,-0.63,0.27,0.19,0.0
1292,12.22,1.83,4.04,-0.39,-0.57,-0.09,0.0
1293,8.05,0.86,4.97,-0.77,0.05,-0.08,0.0
1294,8.53,0.62,4.43,-0.81,-0.04,-0.02,0.0
1295,9.55,0.34,4.84,-0.9,0.05,-0.12,0.0
1296,11.13,1.13,5.29,-0.59,0.27,-0.04,0.0
1297,8.25,0.8,4.26,-0.61,0.0,-0.02,0.0
1298,9.11,1.85,4.52,-0.23,-0.06,0.04,0.0
1299,9.29,1.03,5.27,-0.42,0.14,-0.0,0.0
1300,10.79,1.55,5.89,-0.78,0.24,0.04,0.0
1301,7.95,0.91,4.36,-0.78,-0.08,-0.1,0.0
1302,8.23,1.34,4.51,-0.96,-0.08,-0.19,0.0
1303,11.44,2.07,4.14,-0.44,-0.37,-0.07,0.0
1304,8.27,0.85,4.56,-0.66,-0.05,0.01,0.0
1305,8.64,1.37,4.33,-0.33,-0.01,0.09,0.0
1306,9.68,1.75,5.54,-0.59,-0.02,-0.1,0.0
1307,8.25,0.86,4.44,-0.68,0.02,-0.09,0.0
1308,8.37,0.68,4.59,-0.82,-0.0,-0.14,0.0
1309,9.96,0.53,5.21,-0.74,-0.0,-0.1,0.0
1310,9.19,0.93,4.13,-0.68,0.32,-0.02,0.0
1311,8.27,1.05,4.48,-0.77,-0.22,-0.03,0.0
1312,8.75,1.39,4.41,-0.37,-0.21,0.1,0.0
1313,8.74,0.92,4.65,-0.33,-0.01,0.06,0.0
1314,10.32,1.41,5.13,-0.48,0.03,0.14,0.0
1315,11.12,1.09,5.57,-0.64,0.24,0.14,0.0
1316,8.39,1.23,4.47,-0.68,0.06,-0.09,0.0
1317,8.46,0.62,4.21,-0.9,0.04,-0.14,0.0
1318,9.87,0.54,5.19,-0.8,0.01,-0.09,0.0
1319,8.58,0.91,4.29,-0.75,-0.06,-0.06,0.0
1320,8.82,1.51,4.02,-0.37,0.01,0.06,0.0
1321,9.67,1.41,5.15,-0.25,-0.06,0.08,0.0
1322,11.08,1.16,5.3,-0.85,0.26,-0.02,0.0
1323,8.02,0.7,4.28,-0.71,0.03,-0.05,0.0
1324,8.61,0.79,4.44,-0.8,0.1,-0.13,0.0
1325,11.21,1.21,5.18,-0.37,0.24,-0.03,0.0
1326,11.04,1.82,4.04,-0.73,-0.29,-0.12,0.0
1327,8.2,1.34,4.56,-0.73,-0.16,-0.08,0.0
1328,8.43,1.64,4.36,-0.42,-0.09,0.04,0.0
1329,9.8,1.41,5.14,-0.61,0.18,0.04,0.0
1330,7.87,1.3,4.48,-0.64,-0.03,-0.06,0.0
1331,8.35,0.84,4.28,-0.83,0.07,-0.11,0.0
1332,9.58,0.83,5.25,-0.79,-0.04,-0.12,0.0
1333,10.86,0.74,5.33,-0.53,0.4,0.08,0.0
1334,11.08,1.72,4.12,-0.55,-0.37,0.01,0.0
1335,8.37,0.98,4.69,-0.64,-0.06,0.03,0.0
1336,8.64,1.47,4.11,-0.37,-0.09,0.03,0.0
1337,9.96,1.23,5.33,-0.36,0.0,0.07,0.0
1338,11.25,1.01,5.04,-0.57,0.25,0.1,0.0
1339,8.15,0.75,4.64,-0.77,0.05,-0.14,0.0
1340,8.46,0.95,4.27,-0.85,-0.06,-0.14,0.0
1341,10.19,0.77,5.11,-0.74,-0.04,-0.07,0.0
1342,10.9,2.34,3.97,-0.53,-0.35,-0.12,0.0
1343,8.63,1.27,4.34,-0.71,-0.14,-0.03,0.0
1344,8.74,1.64,4.2,-0.35,-0.08,0.12,0.0
1345,9.72,1.73,5.38,-0.43,0.19,0.02,0.0
1346,8.05,0.69,4.55,-0.74,0.05,-0.15,0.0
1347,8.48,1.0,4.65,-0.89,0.01,-0.16,0.0
1348,9.43,0.39,5.37,-0.92,0.06,-0.13,0.0
1349,11.01,0.99,5.32,-0.45,0.18,0.06,0.0
1350,11.41,2.15,4.11,-0.62,-0.41,-0.01,0.0
1351,8.17,0.82,4.53,-0.8,-0.02,-0.0,0.0
1352,8.42,1.15,4.47,-0.47,-0.11,-0.02,0.0
1353,9.92,1.17,4.65,-0.46,0.04,0.06,0.0
1354,8.07,0.99,4.04,-0.68,-0.03,-0.06,0.0
1355,8.71,0.54,4.15,-0.95,-0.02,-0.15,0.0
1356,10.22,0.43,5.29,-0.83,-0.07,-0.08,0.0
1357,11.39,1.03,5.18,-0.41,0.29,-0.0,0.0
1358,11.8,1.91,4.08,-0.64,-0.31,-0.1,0.0
1359,8.53,1.03,4.5,-0.74,0.2,-0.05,0.0
1360,8.86,1.74,4.64,-0.27,-0.05,0.1,0.0
1361,9.26,0.99,5.49,-0.41,0.05,0.07,0.0
1362,11.1,0.91,5.54,-0.48,0.15,0.23,0.0
1363,8.03,0.74,4.66,-0.75,0.03,-0.15,0.0
1364,8.63,0.86,4.31,-0.88,-0.11,-0.17,0.0
1365,10.06,0.4,5.4,-0.94,0.01,-0.1,0.0
1366,11.56,1.35,5.04,-0.54,0.38,0.02,0.0
1367,11.89,1.94,4.13,-0.63,-0.38,-0.05,0.0
1368,8.24,1.08,4.77,-0.66,-0.03,-0.06,0.0
1369,8.59,1.54,4.59,-0.28,-0.08,0.13,0.0
1370,9.7,1.13,5.22,-0.35,-0.05,0.06,0.0
1371,7.98,1.16,4.54,-0.84,-0.07,-0.14,0.0
1372,8.58,0.57,4.44,-1.01,-0.07,-0.19,0.0
1373,11.15,0.94,5.57,-0.35,0.18,-0.01,0.0
1374,8.42,0.74,4.59,-0.7,-0.03,0.05,0.0
1375,8.52,1.32,4.16,-0.35,-0.09,0.08,0.0
1376,10.14,1.2,5.11,-0.51,0.06,0.0,0.0
1377,11.48,0.57,5.61,-0.55,0.22,0.05,0.0
1378,8.08,0.98,4.41,-0.72,-0.03,-0.15,0.0
1379,8.65,0.88,4.67,-0.86,0.01,-0.12,0.0
1380,9.45,0.91,5.22,-0.73,-0.02,-0.08,0.0
1381,10.2,0.89,5.28,-0.6,0.02,-0.0,0.0
1382,10.62,0.94,5.15,-0.63,0.33,0.03,0.0
1383,11.87,2.48,4.29,-0.45,-0.35,0.03,0.0
1384,8.33,1.21,4.83,-0.81,0.06,-0.03,0.0
1385,8.55,1.54,4.62,-0.4,-0.07,0.11,0.0
1386,9.25,1.08,5.25,-0.43,-0.13,0.07,0.0
1387,9.67,1.62,5.97,-0.55,0.12,0.01,0.0
1388,11.07,0.82,5.33,-0.63,0.25,0.1,0.0
1389,7.95,0.62,4.51,-0.76,-0.01,-0.08,0.0
1390,8.7,0.72,4.24,-0.83,-0.03,-0.17,0.0
1391,10.2,0.72,5.34,-0.76,0.09,-0.13,0.0
1392,11.01,1.26,5.03,-0.42,0.28,0.05,0.0
1393,11.35,1.87,4.39,-0.7,-0.43,-0.02,0.0
1394,8.03,0.62,4.23,-0.73,-0.15,0.03,0.0
1395,8.56,0.96,4.25,-0.47,-0.08,0.03,0.0
1396,9.19,0.62,4.43,-0.37,-0.02,0.11,0.0
1397,9.96,1.38,5.25,-0.34,0.13,0.07,0.0
1398,11.93,0.86,5.25,-0.66,0.27,-0.01,0.0
1399,8.12,1.3,4.34,-0.52,-0.06,-0.03,0.0
1400,8.51,0.64,4.34,-0.85,0.02,-0.12,0.0
1401,9.83,0.54,5.28,-0.86,0.01,-0.13,0.0
1402,11.44,0.49,5.57,-0.56,0.15,0.05,0.0
1403,11.76,1.97,4.17,-0.73,-0.3,-0.07,0.0
1404,7.83,0.57,4.8,-0.9,0.12,-0.03,0.0
1405,8.54,1.13,4.37,-0.4,-0.1,0.01,0.0
1406,9.62,0.98,5.38,-0.32,-0.07,0.03,0.0
1407,11.26,0.48,5.3,-0.6,0.29,0.19,0.0
1408,7.86,0.88,4.52,-0.68,-0.02,-0.13,0.0
1409,8.57,0.68,4.3,-0.97,-0.0,-0.15,0.0
1410,9.84,0.25,5.46,-0.81,0.05,-0.14,0.0
1411,11.46,2.17,4.27,-0.69,-0.57,-0.06,0.0
1412,8.23,0.76,4.48,-0.82,-0.02,-0.07,0.0
1413,8.61,1.31,4.04,-0.47,-0.01,0.0,0.0
1414,9.5,1.13,5.07,-0.36,-0.14,0.01,0.0
1415,10.17,1.13,5.07,-0.45,0.09,0.03,0.0
1416,11.03,1.29,5.61,-0.65,0.13,0.12,0.0
1417,7.95,0.42,4.37,-0.82,0.08,-0.12,0.0
1418,8.58,0.3,4.31,-0.81,0.08,-0.11,0.0
1419,9.67,0.21,5.05,-0.71,0.06,-0.05,0.0
1420,10.02,0.09,5.44,-0.63,0.09,-0.01,0.0
1421,11.31,0.92,5.7,-0.42,0.15,0.01,0.0
1422,11.45,1.84,4.22,-0.64,-0.39,-0.05,0.0
1423,7.94,0.73,4.63,-0.81,0.02,-0.07,0.0
1424,8.58,1.35,4.44,-0.46,-0.04,0.03,0.0
1425,9.56,0.96,5.32,-0.34,-0.07,0.11,0.0
1426,8.2,1.12,4.54,-0.65,0.03,-0.09,0.0
1427,8.7,0.96,4.63,-0.84,-0.0,-0.13,0.0
1428,9.49,0.92,5.39,-0.87,0.06,-0.19,0.0
1429,11.14,0.74,5.86,-0.65,0.2,0.04,0.0
1430,11.77,2.11,4.19,-0.59,-0.48,0.02,0.0
1431,8.12,0.85,4.89,-0.85,0.04,-0.04,0.0
1432,8.45,1.2,4.82,-0.4,-0.03,0.03,0.0
1433,9.86,0.79,5.57,-0.51,0.14,0.1,0.0
1434,8.02,0.7,4.81,-0.56,0.08,0.03,0.0
1435,8.43,0.02,4.64,-0.73,-0.02,0.09,0.0
1436,9.92,0.44,5.44,-0.69,0.01,-0.17,0.0
1437,10.71,0.51,5.83,-0.69,0.21,-0.08,0.0
1438,11.2,1.96,4.52,-0.62,-0.36,-0.07,0.0
1439,8.19,0.46,4.67,-0.93,-0.13,-0.07,0.0
1440,8.69,0.68,4.32,-0.51,-0.1,0.05,0.0
1441,8.67,0.41,4.39,-0.44,-0.14,0.08,0.0
1442,10.54,1.08,4.93,-0.37,-0.08,0.13,0.0
1443,10.27,1.5,5.43,-0.69,0.28,-0.06,0.0
1444,11.34,0.66,4.07,-0.42,-0.28,0.01,0.0
1445,8.34,0.63,4.59,-0.64,0.05,-0.12,0.0
1446,8.05,-0.31,4.69,-0.73,0.08,-0.03,0.0
1447,9.36,0.21,5.36,-0.62,0.02,-0.07,0.0
1448,9.63,-0.08,5.83,-0.59,0.23,0.02,0.0
1449,11.33,0.56,5.18,-0.56,0.19,-0.05,0.0
1450,11.01,1.86,4.29,-0.53,-0.29,-0.18,0.0
1451,8.9,1.13,4.44,-0.88,-0.0,0.07,0.0
1452,8.6,0.63,4.71,-0.48,-0.08,0.02,0.0
1453,9.34,1.01,5.61,-0.25,-0.03,-0.03,0.0
1454,9.88,1.42,5.38,-0.38,0.05,-0.01,0.0
1455,9.88,1.45,5.6,-0.44,0.16,0.02,0.0
1456,9.05,0.89,6.05,-0.49,0.17,0.01,0.0
1457,8.31,0.62,4.4,-0.48,-0.12,-0.05,0.0
1458,9.82,0.93,5.31,-0.52,0.1,0.08,0.0
1459,10.66,0.59,5.6,-0.68,0.18,-0.1,0.0
1460,11.25,1.73,3.81,-0.75,-0.55,-0.3,0.0
1461,6.87,0.17,4.82,-0.72,-0.27,0.0,0.0
1462,9.15,1.57,3.93,-0.57,-0.13,0.01,0.0
1463,9.73,1.2,5.22,-0.47,0.08,0.05,0.0
1464,8.52,0.95,4.19,-0.4,-0.04,0.02,0.0
1465,9.33,0.38,5.29,-0.7,-0.02,-0.03,0.0
1466,10.85,0.97,5.24,-0.52,0.1,-0.22,0.0
1467,8.1,0.68,4.56,-0.78,0.01,0.18,0.0
1468,10.42,0.76,5.01,-0.56,-0.05,-0.02,0.0
1469,11.25,0.24,4.62,-0.49,0.25,0.04,0.0
1470,12.08,-0.07,3.45,-0.4,-0.38,-0.09,0.0
1471,8.73,0.32,4.2,-0.43,0.02,-0.01,0.0
1472,8.5,0.26,4.07,-0.8,-0.07,-0.13,0.0
1473,10.23,0.3,4.89,-0.8,-0.08,-0.11,0.0
1474,11.41,0.55,4.75,-0.47,0.2,-0.02,0.0
1475,8.22,0.69,4.16,-0.72,0.03,0.1,0.0
1476,9.94,0.46,4.83,-0.46,0.06,0.11,0.0
1477,11.52,0.4,4.62,-0.19,0.38,0.11,0.0
1478,8.57,0.48,3.88,-0.5,-0.03,-0.06,0.0
1479,9.3,0.0,4.1,-0.94,-0.15,-0.25,0.0
1480,10.38,0.54,4.53,-0.81,0.02,-0.15,0.0
1481,10.12,-0.06,4.95,-0.53,0.23,0.02,0.0
1482,8.67,0.7,3.81,-0.65,-0.02,0.12,0.0
1483,9.05,1.01,3.87,-0.4,-0.04,0.08,0.0
1484,10.11,1.15,4.76,-0.5,0.06,0.04,0.0
1485,11.54,0.44,4.71,-0.36,0.26,0.02,0.0
1486,8.65,0.41,3.8,-0.58,0.06,0.07,0.0
1487,8.61,0.15,3.28,-0.92,-0.05,-0.19,0.0
1488,10.47,0.37,4.58,-0.8,-0.08,-0.12,0.0
1489,11.21,0.96,4.7,-0.67,0.36,-0.11,0.0
1490,8.49,0.71,4.0,-0.64,-0.12,0.09,0.0
1491,8.76,0.88,3.82,-0.4,-0.04,0.09,0.0
1492,10.3,1.24,4.63,-0.39,0.09,0.04,0.0
1493,11.33,0.59,4.57,-0.4,0.27,0.08,0.0
1494,8.55,0.38,3.61,-0.4,-0.13,0.06,0.0
1495,9.05,0.02,3.29,-0.79,-0.15,-0.06,0.0
1496,10.12,0.39,4.42,-0.7,0.27,-0.02,0.0
1497,11.49,0.41,4.56,-0.43,0.32,-0.03,0.0
1498,8.71,0.52,3.84,-0.7,-0.09,0.03,0.0
1499,8.91,0.83,3.43,-0.51,-0.15,0.04,0.0
1500,10.39,0.86,4.12,-0.43,0.08,0.05,0.0
1501,10.27,0.9,4.43,-0.49,0.22,0.07,0.0
1502,11.79,0.49,3.99,-0.41,0.35,-0.07,0.0
1503,12.43,-0.11,3.54,-0.55,-0.33,-0.23,0.0
1504,8.82,0.19,3.59,-0.41,-0.05,-0.01,0.0
1505,9.02,0.6,3.23,-0.71,-0.05,-0.07,0.0
1506,10.44,0.62,4.32,-0.83,0.05,-0.13,0.0
1507,11.12,0.77,4.3,-0.49,0.27,0.04,0.0
1508,8.53,0.72,3.43,-0.65,-0.14,0.05,0.0
1509,8.94,0.84,3.36,-0.54,-0.02,-0.0,0.0
1510,10.58,0.61,4.49,-0.56,0.08,0.0,0.0
1511,11.62,0.81,4.48,-0.38,0.32,0.01,0.0
1512,12.55,0.04,3.21,-0.75,-0.46,-0.07,0.0
1513,8.85,0.28,3.03,-0.89,-0.03,-0.13,0.0
1514,9.82,0.21,4.03,-0.86,-0.01,-0.1,0.0
1515,10.11,0.7,4.28,-0.81,0.16,-0.13,0.0
1516,11.27,0.6,4.46,-0.51,0.32,-0.02,0.0
1517,8.66,0.77,3.6,-0.71,-0.15,0.02,0.0
1518,9.02,0.91,3.34,-0.51,-0.09,0.03,0.0
1519,10.52,0.75,4.01,-0.48,0.09,0.04,0.0
1520,11.64,0.81,4.14,-0.27,0.58,-0.0,0.0
1521,12.27,0.1,3.61,-0.57,-0.33,-0.24,0.0
1522,9.05,0.63,4.28,-0.47,0.11,-0.08,0.0
1523,8.76,0.46,4.03,-0.78,-0.05,-0.04,0.0
1524,10.0,0.46,4.88,-0.66,0.03,0.01,0.0
1525,11.2,0.92,4.6,-0.41,0.27,0.04,0.0
1526,8.49,0.37,4.19,-0.78,0.01,-0.02,0.0
1527,8.8,0.93,4.02,-0.42,-0.03,0.08,0.0
1528,10.16,1.07,4.87,-0.51,0.02,0.07,0.0
1529,9.77,1.11,5.05,-0.52,0.13,0.06,0.0
1530,10.93,0.38,5.15,-0.32,0.22,0.14,0.0
1531,8.34,0.54,4.05,-0.53,-0.0,-0.01,0.0
1532,9.43,-0.02,4.21,-0.9,-0.12,-0.2,0.0
1533,10.11,-0.09,5.01,-0.74,0.11,-0.06,0.0
1534,8.82,1.15,3.9,-0.4,-0.08,0.0,0.0
1535,10.45,0.94,4.75,-0.45,-0.01,-0.0,0.0
1536,9.85,0.85,5.15,-0.35,0.23,0.08,0.0
1537,11.99,0.6,4.65,-0.37,0.3,0.08,0.0
1538,12.41,0.04,3.43,-0.59,-0.28,-0.34,0.0
1539,8.55,0.48,4.13,-0.46,-0.13,-0.06,0.0
1540,8.79,0.68,3.99,-0.84,0.01,-0.11,0.0
1541,9.95,0.6,4.98,-0.92,-0.06,-0.04,0.0
1542,9.04,0.83,3.55,-0.53,0.02,-0.03,0.0
1543,10.12,0.88,4.64,-0.53,0.2,0.03,0.0
1544,9.9,1.04,4.94,-0.53,0.23,0.04,0.0
1545,8.76,0.45,3.73,-0.39,-0.04,0.06,0.0
1546,9.87,-0.3,3.93,-0.84,-0.15,-0.15,0.0
1547,9.98,0.01,4.42,-0.71,0.07,-0.04,0.0
1548,10.31,-0.2,4.36,-0.59,0.24,0.05,0.0
1549,9.03,0.9,4.02,-0.3,0.07,-0.01,0.0
1550,9.71,1.11,4.54,-0.42,0.05,-0.01,0.0
1551,11.57,0.07,3.62,-0.63,-0.44,-0.07,0.0
1552,8.39,0.7,3.91,-0.53,-0.15,0.07,0.0
1553,9.82,0.21,3.92,-0.84,-0.16,-0.16,0.0
1554,9.27,0.32,3.68,-0.83,-0.08,-0.11,0.0
1555,8.81,0.51,3.37,-0.87,0.0,-0.06,0.0
1556,9.85,0.28,4.87,-0.88,0.17,-0.1,0.0
1557,8.94,1.06,3.54,-0.47,0.01,0.08,0.0
1558,10.32,0.65,4.55,-0.53,-0.01,0.1,0.0
1559,11.37,0.56,4.61,-0.35,0.31,-0.01,0.0
1560,8.84,0.11,3.88,-0.38,-0.04,-0.03,0.0
1561,8.5,0.42,3.47,-0.81,-0.03,-0.12,0.0
1562,10.34,0.39,4.66,-0.88,0.11,-0.11,0.0
1563,8.44,0.34,4.08,-0.32,0.05,0.12,0.0
1564,8.89,0.53,3.71,-0.59,-0.08,-0.01,0.0
1565,10.4,0.83,4.69,-0.42,0.14,-0.02,0.0
1566,11.32,0.56,4.7,-0.48,0.4,-0.01,0.0
1567,11.62,0.12,3.81,-0.52,-0.39,-0.21,0.0
1568,8.7,0.46,4.11,-0.47,-0.01,0.07,0.0
1569,9.05,0.34,3.85,-0.75,-0.03,-0.03,0.0
1570,10.17,0.48,5.03,-0.93,-0.1,-0.11,0.0
1571,8.34,0.59,4.38,-0.65,0.13,0.15,0.0
1572,8.81,0.9,4.16,-0.52,-0.11,0.04,0.0
1573,10.03,0.61,4.97,-0.51,-0.03,0.02,0.0
1574,11.19,0.86,4.31,-0.29,0.32,-0.03,0.0
1575,11.94,0.39,3.71,-0.66,-0.51,-0.27,0.0
1576,8.36,0.68,3.88,-0.59,0.05,-0.03,0.0
1577,8.66,0.59,3.89,-0.89,-0.15,-0.07,0.0
1578,10.24,0.1,4.56,-0.84,-0.16,-0.04,0.0
1579,11.11,0.42,4.83,-0.35,0.18,0.04,0.0
1580,8.59,0.71,4.06,-0.48,0.11,0.17,0.0
1581,8.83,0.88,4.05,-0.57,-0.01,0.05,0.0
1582,10.34,0.7,4.36,-0.59,-0.02,-0.02,0.0
1583,9.85,-0.31,4.13,-0.98,-0.19,-0.23,0.0
1584,9.63,0.16,4.78,-0.84,-0.02,-0.11,0.0
1585,9.19,1.45,3.53,-0.31,-0.13,0.03,0.0
1586,10.51,0.85,4.56,-0.62,0.18,-0.05,0.0
1587,11.27,0.87,4.27,-0.53,0.35,-0.03,0.0
1588,12.15,-0.07,3.26,-0.55,-0.35,-0.15,0.0
1589,8.56,0.73,3.44,-0.47,0.0,0.07,0.0
1590,8.89,0.34,3.79,-1.05,-0.04,-0.12,0.0
1591,9.22,0.27,4.34,-0.63,-0.07,0.05,0.0
1592,8.9,0.85,3.82,-0.48,-0.02,0.02,0.0
1593,10.42,1.08,4.41,-0.53,0.06,-0.02,0.0
1594,11.05,0.4,4.85,-0.49,0.42,0.0,0.0
1595,12.3,0.14,3.34,-0.65,-0.39,-0.16,0.0
1596,8.41,0.69,3.86,-0.59,-0.02,0.06,0.0
1597,9.74,0.03,3.9,-0.92,-0.24,-0.07,0.0
1598,11.39,0.58,4.75,-0.42,0.3,-0.06,0.0
1599,8.39,0.62,4.01,-0.52,0.02,0.06,0.0
1600,9.86,1.1,4.66,-0.46,0.14,0.14,0.0
1601,8.45,0.55,3.87,-0.61,-0.11,0.02,0.0
1602,9.79,0.09,4.16,-0.73,-0.13,-0.08,0.0
1603,8.85,0.62,3.44,-0.74,-0.01,-0.03,0.0
1604,10.15,0.76,4.58,-1.04,0.16,0.03,0.0
1605,8.32,0.5,3.73,-0.5,-0.13,0.04,0.0
1606,8.88,0.91,3.64,-0.4,-0.03,0.06,0.0
1607,10.42,0.94,4.36,-0.55,-0.01,-0.02,0.0
1608,11.44,0.38,4.43,-0.51,0.35,0.01,0.0
1609,11.38,-0.46,3.59,-0.56,-0.3,-0.13,0.0
1610,8.73,0.67,3.76,-0.37,-0.03,0.06,0.0
1611,8.9,0.58,3.62,-0.8,-0.01,-0.1,0.0
1612,10.18,0.21,4.82,-0.84,0.08,-0.1,0.0
1613,8.67,0.81,3.66,-0.52,-0.11,-0.05,0.0
1614,10.22,0.62,4.55,-0.43,0.04,-0.03,0.0
1615,12.02,0.04,3.72,-0.66,-0.36,-0.19,0.0
1616,8.55,0.49,4.09,-0.5,-0.06,0.03,0.0
1617,8.86,0.49,3.7,-0.89,-0.03,-0.11,0.0
1618,9.67,0.56,4.82,-0.88,-0.09,-0.08,0.0
1619,11.17,0.94,4.54,-0.46,0.34,-0.03,0.0
1620,8.48,1.02,4.22,-0.47,-0.07,0.13,0.0
1621,8.95,1.24,3.93,-0.41,-0.17,0.06,0.0
1622,10.21,1.02,4.55,-0.59,0.13,-0.03,0.0
1623,11.97,0.86,4.26,-0.49,0.33,0.03,0.0
1624,12.03,-0.2,3.67,-0.72,-0.33,-0.13,0.0
1625,9.47,0.03,3.88,-0.92,-0.25,-0.14,0.0
1626,10.36,0.33,4.26,-0.91,-0.03,-0.09,0.0
1627,8.58,0.61,3.9,-0.38,-0.02,0.05,0.0
1628,10.13,0.8,4.36,-0.49,0.09,0.01,0.0
1629,12.01,0.76,4.44,-0.4,0.26,0.09,0.0
1630,8.67,0.71,3.34,-0.56,0.04,-0.04,0.0
1631,9.6,-0.06,3.7,-0.94,-0.16,-0.2,0.0
1632,9.84,0.23,4.53,-0.93,0.02,-0.1,0.0
1633,11.39,0.45,4.29,-0.49,0.26,-0.03,0.0
1634,11.79,0.48,3.08,-0.85,-0.58,-0.13,0.0
1635,8.85,0.84,3.64,-0.6,-0.06,0.1,0.0
1636,10.77,0.57,4.34,-0.62,0.16,-0.03,0.0
1637,12.41,0.31,3.57,-0.64,-0.35,-0.18,0.0
1638,8.66,0.54,4.23,-0.61,-0.01,-0.09,0.0
1639,9.97,0.02,4.41,-0.94,-0.15,-0.21,0.0
1640,9.72,-0.03,4.56,-0.69,0.04,-0.04,0.0
1641,8.86,1.22,3.89,-0.43,0.13,0.11,0.0
1642,9.69,0.94,4.75,-0.43,0.0,0.15,0.0
1643,12.33,-0.22,3.65,-0.64,-0.46,-0.12,0.0
1644,9.63,-0.01,3.2,-0.87,-0.07,-0.24,0.0
1645,9.05,0.33,3.77,-0.87,0.02,-0.2,0.0
1646,10.0,0.51,4.61,-0.89,0.16,-0.22,0.0
1647,11.08,1.48,4.51,-0.6,0.47,-0.05,0.0
1648,8.35,0.75,2.87,-0.71,0.26,0.03,0.0
1649,8.05,1.13,3.81,-0.54,-0.07,0.05,0.0
1650,10.18,0.65,4.24,-0.46,-0.13,-0.04,0.0
1651,8.71,1.1,3.86,-0.39,0.03,0.06,0.0
1652,10.06,1.17,4.59,-0.38,0.07,0.01,0.0
1653,9.72,1.25,4.94,-0.51,0.18,-0.01,0.0
1654,11.39,0.9,4.64,-0.43,0.3,0.11,0.0
1655,8.38,1.03,3.67,-0.5,-0.12,0.02,0.0
1656,9.9,0.23,4.16,-0.76,-0.15,-0.14,0.0
1657,9.97,0.47,4.72,-0.75,0.17,-0.09,0.0
1658,11.19,1.22,5.14,-0.53,0.17,-0.0,0.0
1659,8.57,0.52,3.73,-0.63,-0.09,0.01,0.0
1660,9.0,0.71,4.1,-0.46,0.02,0.04,0.0
1661,9.94,1.11,4.85,-0.5,0.14,0.05,0.0
1662,11.52,0.92,5.37,-0.41,0.2,0.08,0.0
1663,11.72,-0.29,3.64,-0.53,-0.27,-0.0,0.0
1664,9.97,0.2,3.83,-0.75,-0.32,-0.16,0.0
1665,10.22,0.27,4.79,-0.86,0.13,-0.17,0.0
1666,11.2,0.82,5.15,-0.48,0.19,-0.01,0.0
1667,11.64,0.38,5.03,-0.64,0.23,-0.17,0.0
1668,12.1,-0.17,3.36,-0.38,-0.18,-0.04,0.0
1669,8.6,0.28,3.63,-0.38,-0.08,0.09,0.0
1670,10.31,0.2,3.89,-0.71,-0.11,-0.22,0.0
1671,8.9,0.47,3.67,-0.72,0.07,-0.07,0.0
1672,10.3,0.82,4.5,-0.87,0.14,-0.18,0.0
1673,8.07,0.46,3.43,-0.59,0.29,0.21,0.0
1674,9.11,0.54,3.59,-0.55,-0.06,0.02,0.0
1675,10.15,0.68,4.56,-0.49,0.11,-0.02,0.0
1676,10.07,0.76,4.67,-0.47,0.28,-0.01,0.0
1677,12.23,0.52,4.37,-0.31,0.26,0.05,0.0
1678,12.62,-0.15,3.61,-0.53,-0.37,-0.18,0.0
1679,9.11,0.23,3.39,-0.83,-0.07,-0.13,0.0
1680,10.14,0.27,4.5,-0.76,0.23,-0.12,0.0
1681,9.62,1.21,4.82,-0.48,0.13,0.06,0.0
1682,9.91,1.14,4.83,-0.57,0.11,0.07,0.0
1683,8.66,0.51,3.35,-0.52,-0.14,-0.01,0.0
1684,9.53,0.19,3.62,-0.82,-0.05,-0.16,0.0
1685,8.86,0.35,3.57,-0.78,0.03,-0.11,0.0
1686,10.3,0.64,4.51,-0.7,0.21,-0.13,0.0
1687,11.13,0.86,4.73,-0.46,0.36,0.01,0.0
1688,8.69,0.76,3.77,-0.51,-0.08,0.06,0.0
1689,10.19,0.88,4.7,-0.51,0.01,0.08,0.0
1690,8.77,0.26,3.6,-0.39,-0.13,0.09,0.0
1691,8.98,0.04,3.67,-0.74,-0.15,-0.06,0.0
1692,10.58,0.43,3.87,-0.68,0.06,-0.05,0.0
1693,11.27,0.75,4.3,-0.65,0.45,-0.06,0.0
1694,8.49,0.84,3.62,-0.72,-0.12,0.03,0.0
1695,8.98,0.75,3.34,-0.52,0.07,0.03,0.0
1696,10.29,1.23,4.52,-0.53,0.11,-0.0,0.0
1697,11.0,0.32,3.13,-0.45,-0.35,-0.13,0.0
1698,9.1,0.02,3.61,-0.41,-0.1,0.01,0.0
1699,9.07,0.38,3.54,-0.68,-0.05,-0.07,0.0
1700,10.31,0.52,4.24,-0.67,0.22,-0.06,0.0
1701,11.25,0.91,4.73,-0.61,0.32,-0.13,0.0
1702,9.01,0.56,3.56,-0.47,-0.12,0.05,0.0
1703,10.7,1.05,4.36,-0.53,0.04,0.0,0.0
1704,8.46,0.69,3.49,-0.37,-0.04,0.0,0.0
1705,8.92,0.73,3.29,-0.78,-0.02,-0.04,0.0
1706,10.2,0.54,4.63,-0.78,0.22,-0.04,0.0
1707,8.87,0.66,3.96,-0.51,-0.12,0.09,0.0
1708,10.48,0.84,4.86,-0.6,0.03,-0.0,0.0
1709,8.67,0.63,3.59,-0.31,-0.1,0.09,0.0
1710,9.16,0.35,3.5,-0.84,0.03,-0.09,0.0
1711,9.96,0.33,4.67,-0.9,0.14,-0.21,0.0
1712,8.78,0.58,3.63,-0.44,-0.07,0.07,0.0
1713,10.65,0.8,4.32,-0.53,-0.03,0.01,0.0
1714,10.73,0.35,4.75,-0.59,0.4,-0.06,0.0
1715,8.33,1.03,3.75,-0.46,-0.08,-0.06,0.0
1716,9.68,-0.03,3.89,-0.66,-0.22,-0.09,0.0
1717,8.74,0.33,3.71,-0.66,-0.19,-0.11,0.0
1718,10.53,0.88,4.23,-0.66,0.01,-0.03,0.0
1719,11.43,1.02,4.29,-0.43,0.31,0.04,0.0
1720,8.62,0.67,3.65,-0.51,-0.04,-0.03,0.0
1721,8.84,0.93,3.89,-0.36,0.04,0.12,0.0
1722,10.24,1.36,4.74,-0.56,0.1,0.01,0.0
1723,11.83,1.12,4.5,-0.58,0.38,-0.07,0.0
1724,8.82,0.57,3.39,-0.73,-0.08,-0.11,0.0
1725,9.71,-0.01,3.66,-1.0,-0.14,-0.21,0.0
1726,10.04,0.45,4.53,-0.68,0.18,-0.09,0.0
1727,10.13,0.14,4.79,-0.64,0.22,-0.05,0.0
1728,10.81,0.93,4.41,-0.54,0.39,0.0,0.0
1729,8.6,0.69,3.77,-0.52,-0.14,0.06,0.0
1730,8.76,0.78,3.96,-0.46,0.07,0.03,0.0
1731,10.19,0.84,4.65,-0.55,0.03,-0.01,0.0
1732,11.35,0.89,5.12,-0.43,0.29,-0.08,0.0
1733,8.41,0.95,3.83,-0.42,0.02,0.02,0.0
1734,9.44,0.18,3.92,-0.9,-0.08,-0.15,0.0
1735,8.82,0.37,4.14,-0.82,-0.05,-0.06,0.0
1736,10.34,0.14,4.75,-0.65,0.13,-0.03,0.0
1737,10.16,0.11,4.94,-0.67,0.26,0.02,0.0
1738,11.14,0.63,5.3,-0.63,0.2,-0.07,0.0
1739,8.54,0.69,4.1,-0.6,-0.11,-0.04,0.0
1740,8.74,1.09,4.03,-0.52,-0.11,0.09,0.0
1741,10.36,1.25,4.53,-0.57,0.01,0.07,0.0
1742,10.31,0.57,4.79,-0.45,0.34,0.05,0.0
1743,8.41,0.73,3.72,-0.45,-0.06,0.02,0.0
1744,8.83,0.72,3.82,-0.64,-0.01,-0.05,0.0
1745,10.5,0.56,4.62,-0.74,0.08,-0.05,0.0
1746,11.11,0.96,5.06,-0.49,0.31,0.03,0.0
1747,9.64,0.83,3.89,-0.5,0.48,0.11,0.0
1748,11.32,0.6,3.83,-0.98,-0.42,-0.09,0.0
1749,8.67,1.01,4.03,-0.65,-0.16,0.04,0.0
1750,8.71,0.92,3.95,-0.46,-0.04,0.11,0.0
1751,10.24,0.96,4.66,-0.49,0.11,0.02,0.0
1752,9.75,0.95,5.14,-0.4,0.29,0.07,0.0
1753,11.2,-0.3,3.84,-0.59,-0.4,-0.09,0.0
1754,8.5,0.65,3.8,-0.54,0.1,0.01,0.0
1755,8.96,-0.12,4.23,-0.83,0.02,-0.12,0.0
1756,10.21,0.03,5.17,-0.69,0.1,-0.06,0.0
1757,11.67,0.5,4.33,-0.78,-0.3,-0.19,0.0
1758,7.74,0.77,4.51,-0.46,-0.19,-0.02,0.0
1759,10.19,1.34,4.19,-0.21,-0.08,0.06,0.0
1760,8.29,1.23,4.77,-0.43,0.01,0.04,0.0
1761,10.61,1.3,4.71,-0.63,0.0,-0.01,0.0
1762,11.11,0.52,4.67,-0.66,0.23,0.14,0.0
1763,8.5,1.13,3.99,-0.79,-0.13,-0.15,0.0
1764,9.56,0.38,4.12,-1.03,-0.11,-0.19,0.0
1765,8.71,0.6,3.84,-0.97,-0.13,-0.11,0.0
1766,9.83,0.16,4.98,-0.72,0.14,-0.05,0.0
1767,10.06,0.0,4.87,-0.68,0.24,0.05,0.0
1768,11.3,1.4,4.79,-0.52,0.28,-0.11,0.0
1769,8.46,0.88,4.03,-0.55,-0.19,0.01,0.0
1770,8.44,0.85,4.07,-0.44,-0.06,0.06,0.0
1771,10.26,0.63,4.54,-0.57,0.08,0.03,0.0
1772,10.9,0.77,4.39,-0.61,0.38,-0.11,0.0
1773,8.66,1.08,3.61,-0.3,0.1,0.07,0.0
1774,8.97,1.05,3.74,-0.75,-0.09,-0.12,0.0
1775,10.19,0.75,4.52,-0.89,0.09,-0.11,0.0
1776,8.28,0.65,4.41,-0.73,-0.09,0.06,0.0
1777,8.69,1.29,3.44,-0.54,-0.11,0.02,0.0
1778,10.52,0.76,4.3,-0.53,-0.09,0.0,0.0
1779,8.28,0.78,3.93,-0.59,-0.05,-0.0,0.0
1780,9.61,-0.22,3.85,-1.01,-0.23,-0.2,0.0
1781,8.77,0.35,3.74,-0.92,-0.12,-0.06,0.0
1782,10.26,0.06,4.55,-0.81,-0.05,-0.11,0.0
1783,10.12,-0.43,4.69,-0.61,0.22,-0.01,0.0
1784,8.6,0.61,4.22,-0.48,0.04,0.15,0.0
1785,8.89,1.02,3.69,-0.4,-0.01,-0.01,0.0
1786,10.31,0.96,4.73,-0.48,0.06,0.03,0.0
1787,11.18,0.85,4.27,-0.29,0.49,0.1,0.0
1788,8.15,0.66,4.07,-0.43,0.03,0.03,0.0
1789,9.69,0.06,4.37,-0.94,-0.07,-0.13,0.0
1790,8.63,0.19,4.27,-0.93,-0.04,-0.09,0.0
1791,10.23,0.31,5.0,-0.81,0.14,-0.11,0.0
1792,11.08,1.27,4.91,-0.4,0.26,-0.05,0.0
1793,8.03,0.16,4.28,-0.6,-0.01,0.07,0.0
1794,8.78,0.29,3.72,-0.89,-0.31,-0.04,0.0
1795,10.84,0.12,4.2,-0.73,-0.16,-0.01,0.0
1796,10.08,0.11,4.3,-0.46,0.53,0.05,0.0
1797,11.67,-0.02,3.53,-0.57,-0.3,-0.15,0.0
1798,8.46,0.31,3.65,-0.52,0.0,-0.1,0.0
1799,8.83,-0.13,4.15,-0.81,-0.03,-0.12,0.0
1800,9.61,0.13,4.73,-0.65,0.15,-0.02,0.0
1801,10.04,0.06,5.23,-0.38,0.18,0.05,0.0
1802,11.21,0.89,4.99,-0.28,0.29,-0.02,0.0
1803,8.78,1.03,4.1,-0.43,-0.19,-0.01,0.0
1804,10.19,0.68,5.15,-0.52,-0.14,-0.02,0.0
1805,12.25,0.53,4.65,-0.51,0.27,0.04,0.0
1806,8.41,0.64,3.6,-0.79,-0.06,-0.07,0.0
1807,9.56,-0.17,4.07,-1.04,-0.08,-0.23,0.0
1808,10.12,-0.1,4.77,-0.72,-0.03,-0.12,0.0
1809,12.21,0.45,3.81,-0.8,-0.58,-0.09,0.0
1810,8.66,0.92,4.26,-0.36,-0.05,0.15,0.0
1811,9.09,1.6,3.8,-0.38,-0.07,0.1,0.0
1812,10.13,0.71,4.53,-0.62,-0.17,0.03,0.0
1813,12.43,-0.21,3.35,-0.63,-0.38,-0.12,0.0
1814,8.41,1.07,3.84,-0.46,-0.02,-0.01,0.0
1815,10.0,-0.02,3.67,-0.87,-0.2,-0.17,0.0
1816,8.95,0.51,3.21,-0.86,0.02,-0.06,0.0
1817,9.95,0.14,4.41,-0.82,0.15,-0.11,0.0
1818,8.97,0.93,3.98,-0.48,-0.01,0.03,0.0
1819,10.18,1.02,4.82,-0.58,0.1,-0.04,0.0
1820,11.12,0.88,4.64,-0.38,0.32,0.04,0.0
1821,12.39,-0.05,3.22,-0.75,-0.34,-0.18,0.0
1822,8.54,0.54,3.91,-0.7,-0.09,-0.08,0.0
1823,9.89,-0.09,4.15,-0.97,-0.16,-0.22,0.0
1824,10.33,0.27,4.75,-0.82,0.08,-0.14,0.0
1825,8.72,1.05,3.59,-0.57,-0.07,-0.0,0.0
1826,10.06,0.53,4.73,-0.51,-0.05,-0.04,0.0
1827,11.26,0.96,4.56,-0.44,0.28,-0.04,0.0
1828,8.46,1.03,3.9,-0.59,-0.0,-0.09,0.0
1829,9.86,-0.12,4.16,-0.93,-0.14,-0.2,0.0
1830,8.5,0.57,4.11,-0.75,0.03,0.03,0.0
1831,10.35,0.22,4.38,-0.76,-0.03,-0.11,0.0
1832,8.34,0.93,3.91,-0.5,-0.04,-0.0,0.0
1833,8.7,1.05,3.97,-0.51,0.01,0.01,0.0
1834,9.46,0.9,5.01,-0.33,0.02,0.04,0.0
1835,9.39,1.13,5.07,-0.5,0.15,-0.08,0.0
1836,11.2,1.46,4.78,-0.45,0.32,0.0,0.0
1837,8.47,1.06,4.06,-0.33,0.02,-0.02,0.0
1838,8.65,0.94,4.1,-0.76,-0.04,-0.08,0.0
1839,9.39,0.91,5.12,-0.75,0.11,-0.19,0.0
1840,11.31,1.87,4.83,-0.56,0.19,-0.01,0.0
1841,8.47,1.35,3.8,-0.46,-0.11,0.11,0.0
1842,9.04,1.26,4.09,-0.6,-0.06,-0.0,0.0
1843,11.51,1.12,4.7,-0.57,0.21,0.04,0.0
1844,8.74,0.97,3.86,-0.37,0.04,0.03,0.0
1845,9.65,0.37,4.26,-0.6,-0.09,-0.01,0.0
1846,9.57,1.04,4.84,-0.72,0.15,-0.07,0.0
1847,11.32,2.2,4.72,-0.81,0.23,-0.1,0.0
1848,8.43,0.99,3.82,-0.61,0.06,0.01,0.0
1849,8.6,1.03,3.99,-0.53,0.03,0.02,0.0
1850,9.57,1.48,5.27,-0.76,0.14,0.03,0.0
1851,11.75,0.89,4.95,-0.55,0.16,-0.0,0.0
1852,8.83,0.34,4.18,-0.44,-0.01,0.0,0.0
1853,8.55,0.33,4.07,-0.78,-0.03,-0.07,0.0
1854,9.97,-0.09,5.17,-0.69,0.04,-0.06,0.0
1855,11.54,1.28,4.77,-0.65,0.21,-0.1,0.0
1856,8.25,0.65,3.95,-0.62,0.0,-0.01,0.0
1857,8.75,1.19,3.91,-0.55,0.06,0.0,0.0
1858,10.02,1.24,5.06,-0.45,0.14,0.05,0.0
1859,11.42,0.87,5.18,-0.61,0.11,-0.05,0.0
1860,8.45,0.31,4.19,-0.52,-0.0,0.03,0.0
1861,9.62,-0.07,4.3,-0.88,-0.18,-0.18,0.0
1862,8.75,-0.03,4.14,-0.78,-0.05,-0.08,0.0
1863,9.89,0.32,5.2,-0.68,0.19,-0.11,0.0
1864,9.53,-0.33,5.27,-0.74,0.26,-0.06,0.0
1865,8.58,1.05,4.19,-0.55,-0.03,0.03,0.0
1866,8.83,1.14,4.23,-0.51,-0.02,0.0,0.0
1867,9.84,1.31,5.32,-0.61,0.02,-0.04,0.0
1868,11.19,0.66,4.77,-0.63,0.26,0.02,0.0
1869,8.32,1.17,4.02,-0.48,0.01,0.05,0.0
1870,9.58,0.27,4.33,-0.77,-0.09,-0.1,0.0
1871,8.88,0.68,4.39,-0.75,0.0,-0.03,0.0
1872,8.69,0.64,4.59,-0.75,-0.03,-0.08,0.0
1873,9.63,0.75,5.35,-0.73,0.11,-0.08,0.0
1874,8.21,1.02,4.16,-0.75,-0.04,-0.02,0.0
1875,8.71,0.64,4.31,-0.61,-0.03,0.05,0.0
1876,10.25,1.28,5.11,-0.54,0.08,-0.04,0.0
1877,11.38,0.77,4.63,-0.37,0.3,0.0,0.0
1878,11.42,0.18,3.91,-0.37,-0.23,0.01,0.0
1879,8.84,0.22,4.2,-0.41,0.05,0.1,0.0
1880,8.83,0.0,4.21,-0.77,-0.05,-0.05,0.0
1881,9.28,0.41,5.33,-0.75,0.11,-0.08,0.0
1882,9.59,-0.04,5.51,-0.71,0.24,0.01,0.0
1883,8.65,0.7,4.48,-0.26,0.07,0.03,0.0
1884,9.61,1.54,5.4,-0.19,0.11,0.05,0.0
1885,11.68,0.9,5.42,-0.35,0.18,0.06,0.0
1886,8.73,1.01,4.0,-0.18,0.07,0.17,0.0
1887,8.68,0.77,4.02,-0.47,-0.03,0.04,0.0
1888,9.28,1.01,5.29,-0.67,0.19,-0.07,0.0
1889,10.82,1.68,5.55,-1.0,0.08,-0.13,0.0
1890,10.63,0.31,4.15,-1.16,-0.3,-0.03,0.0
1891,8.54,1.36,4.37,-0.98,-0.05,-0.13,0.0
1892,8.54,1.0,4.18,-0.85,-0.06,-0.05,0.0
1893,9.93,1.17,5.41,-0.71,0.08,-0.07,0.0
1894,11.32,1.48,5.6,-0.59,0.16,-0.16,0.0
1895,10.07,0.17,4.34,-0.61,-0.09,-0.12,0.0
1896,8.42,0.61,4.62,-0.6,0.09,-0.11,0.0
1897,9.99,0.41,5.27,-0.71,0.18,-0.05,0.0
1898,8.46,0.67,4.28,-0.69,-0.1,-0.05,0.0
1899,9.35,1.16,5.36,-0.68,0.14,-0.11,0.0
1900,10.87,1.27,5.08,-0.55,0.3,-0.12,0.0
1901,8.55,0.49,4.07,-0.46,0.05,0.06,0.0
1902,9.79,0.12,4.32,-0.7,-0.08,-0.09,0.0
1903,8.81,0.34,4.25,-0.64,0.01,0.0,0.0
1904,9.77,0.6,5.2,-0.67,0.14,-0.11,0.0
1905,8.28,1.12,4.2,-0.7,-0.01,-0.01,0.0
1906,8.58,1.1,4.4,-0.55,-0.02,0.06,0.0
1907,9.93,1.17,5.2,-0.44,0.08,0.08,0.0
1908,9.4,1.35,5.29,-0.56,0.17,-0.01,0.0
1909,11.16,0.85,4.98,-0.52,0.22,0.01,0.0
1910,8.4,0.95,4.13,-0.45,0.01,0.04,0.0
1911,9.29,0.14,4.5,-0.69,-0.06,-0.11,0.0
1912,8.67,0.47,4.43,-0.68,-0.02,-0.02,0.0
1913,9.94,0.39,5.35,-0.78,0.09,-0.06,0.0
1914,8.38,0.68,4.19,-0.84,-0.06,-0.07,0.0
1915,9.03,1.03,4.96,-0.66,0.11,-0.14,0.0
1916,11.91,0.72,4.73,-0.52,0.26,-0.13,0.0
1917,11.47,0.13,4.13,-0.28,-0.15,-0.03,0.0
1918,8.54,0.48,4.22,-0.3,0.15,0.03,0.0
1919,9.65,0.54,5.07,-0.73,0.09,-0.1,0.0
1920,9.79,0.52,5.62,-0.69,0.15,-0.03,0.0
1921,10.97,1.05,5.38,-0.65,0.14,-0.02,0.0
1922,8.26,0.68,4.48,-0.83,-0.02,-0.06,0.0
1923,8.61,0.72,3.75,-0.53,-0.03,0.04,0.0
1924,9.67,1.32,5.28,-0.44,0.14,-0.01,0.0
1925,11.59,0.65,5.14,-0.52,0.26,0.03,0.0
1926,8.07,0.59,4.45,-0.53,0.08,-0.02,0.0
1927,9.7,-0.11,4.84,-0.84,-0.09,-0.2,0.0
1928,9.98,0.48,5.33,-0.77,0.07,-0.11,0.0
1929,10.95,0.94,5.36,-0.59,0.16,-0.08,0.0
1930,8.07,0.96,4.3,-0.61,-0.07,-0.03,0.0
1931,8.75,1.04,4.25,-0.45,-0.05,0.07,0.0
1932,9.74,1.13,5.37,-0.49,0.06,0.04,0.0
1933,9.61,0.97,5.14,-0.51,0.13,-0.01,0.0
1934,9.52,0.76,5.38,-0.47,0.18,0.01,0.0
1935,11.09,0.6,4.94,-0.41,0.25,0.07,0.0
1936,8.14,0.69,4.12,-0.45,0.01,0.0,0.0
1937,8.79,0.47,4.38,-0.68,0.07,-0.05,0.0
1938,9.98,0.75,5.39,-0.75,0.16,-0.08,0.0
1939,10.66,0.94,5.34,-0.65,0.2,0.0,0.0
1940,7.96,0.63,4.71,-0.71,-0.03,-0.01,0.0
1941,8.33,0.7,4.43,-0.55,-0.02,0.05,0.0
1942,10.3,1.18,5.14,-0.52,0.02,-0.04,0.0
1943,11.54,0.57,5.28,-0.57,0.21,0.06,0.0
1944,8.22,0.51,4.17,-0.5,-0.04,0.06,0.0
1945,8.75,0.31,4.46,-0.7,0.03,-0.05,0.0
1946,9.9,0.45,5.07,-0.61,0.16,-0.04,0.0
1947,9.71,0.0,5.35,-0.55,0.15,0.04,0.0
1948,11.06,1.16,5.21,-0.64,0.21,-0.06,0.0
1949,8.01,0.53,4.44,-0.64,-0.04,-0.02,0.0
1950,8.75,1.05,4.03,-0.47,-0.04,0.01,0.0
1951,9.74,1.29,5.2,-0.54,0.17,-0.01,0.0
1952,8.37,0.9,4.23,-0.45,-0.03,0.08,0.0
1953,8.75,0.53,4.49,-0.73,-0.02,-0.06,0.0
1954,9.91,0.59,5.32,-0.68,0.17,-0.04,0.0
1955,8.55,1.16,3.88,-0.77,-0.08,-0.05,0.0
1956,8.95,1.0,4.22,-0.53,0.03,0.06,0.0
1957,9.94,1.18,4.87,-0.49,0.14,0.05,0.0
1958,10.02,1.02,5.38,-0.58,0.18,-0.05,0.0
1959,10.61,0.99,4.62,-0.46,0.36,0.01,0.0
1960,8.48,0.36,4.1,-0.35,0.15,0.11,0.0
1961,8.72,0.57,4.27,-0.51,0.1,-0.04,0.0
1962,9.93,0.83,5.12,-0.58,0.19,0.0,0.0
1963,9.86,0.76,5.39,-0.6,0.21,0.04,0.0
1964,8.43,0.92,4.13,-0.74,-0.13,0.02,0.0
1965,8.34,0.57,3.77,-0.48,0.06,0.16,0.0
1966,10.23,1.15,4.42,-0.45,0.01,-0.0,0.0
1967,8.65,0.68,4.1,-0.56,-0.01,0.04,0.0
1968,9.68,0.02,4.19,-0.9,-0.04,-0.13,0.0
1969,9.95,0.19,5.24,-0.76,0.1,-0.11,0.0
1970,8.76,0.89,4.25,-0.61,0.08,0.02,0.0
1971,9.73,1.45,5.25,-0.61,0.17,-0.06,0.0
1972,8.44,0.72,4.49,-0.22,0.06,0.13,0.0
1973,8.78,0.68,4.29,-0.67,-0.07,-0.04,0.0
1974,10.01,0.64,5.21,-0.7,0.13,-0.09,0.0
1975,9.94,0.17,5.33,-0.72,0.12,0.01,0.0
1976,8.53,0.73,4.52,-0.49,0.0,0.05,0.0
1977,10.18,0.82,5.12,-0.47,0.01,0.06,0.0
1978,11.45,0.74,4.96,-0.57,0.21,-0.11,0.0
1979,8.77,0.25,4.27,-0.33,-0.01,0.08,0.0
1980,8.65,0.55,4.29,-0.65,0.03,-0.05,0.0
1981,9.81,0.64,5.17,-0.7,0.19,-0.07,0.0
1982,8.25,0.7,4.31,-0.7,-0.08,-0.02,0.0
1983,8.69,0.99,4.16,-0.59,0.05,-0.01,0.0
1984,9.94,1.22,5.15,-0.57,0.11,-0.04,0.0
1985,9.59,1.27,5.42,-0.6,0.22,-0.08,0.0
1986,9.33,0.86,5.33,-0.54,0.23,-0.06,0.0
1987,10.9,0.69,5.69,-0.49,0.16,0.02,0.0
1988,8.26,0.56,4.32,-0.41,0.05,0.09,0.0
1989,9.46,0.2,4.33,-0.77,-0.05,-0.11,0.0
1990,10.12,0.36,5.55,-0.76,0.13,-0.08,0.0
1991,8.13,0.72,4.37,-0.64,-0.05,0.03,0.0
1992,8.91,0.84,3.99,-0.44,-0.03,0.03,0.0
1993,9.38,1.29,5.19,-0.53,0.24,-0.06,0.0
1994,11.53,0.62,5.02,-0.43,0.2,0.01,0.0
1995,11.55,-0.29,3.98,-0.57,-0.27,-0.1,0.0
1996,8.5,0.47,4.45,-0.46,0.01,0.09,0.0
1997,8.72,0.49,4.24,-0.84,-0.01,-0.08,0.0
1998,9.97,0.37,5.24,-0.76,0.13,-0.12,0.0
1999,10.73,0.44,5.65,-0.7,0.18,-0.11,0.0
2000,8.24,0.84,4.4,-0.62,0.01,0.06,0.0
2001,8.71,0.83,4.43,-0.52,0.01,0.0,0.0
2002,9.74,1.17,5.39,-0.44,0.06,-0.01,0.0
2003,9.35,1.27,5.74,-0.54,0.19,-0.02,0.0
2004,11.0,1.0,5.09,-0.55,0.09,0.03,0.0
2005,9.08,0.66,4.15,-0.48,-0.03,0.05,0.0
2006,8.71,0.95,4.13,-0.71,0.07,0.04,0.0
2007,9.65,0.18,5.09,-0.74,0.06,0.01,0.0
2008,11.06,0.97,5.42,-0.55,0.13,-0.04,0.0
2009,8.54,0.87,4.18,-0.49,-0.03,0.04,0.0
2010,10.04,1.0,5.11,-0.5,0.09,0.01,0.0
2011,10.89,0.86,5.23,-0.59,0.2,-0.08,0.0
2012,8.59,0.56,4.3,-0.41,0.13,0.07,0.0
2013,9.21,0.05,4.47,-0.71,-0.05,-0.09,0.0
2014,8.53,0.46,4.3,-0.79,0.0,-0.09,0.0
2015,9.78,0.36,5.28,-0.78,0.05,-0.15,0.0
2016,9.33,-0.14,5.49,-0.64,0.23,0.09,0.0
2017,10.69,0.99,5.33,-0.57,0.21,-0.01,0.0
2018,8.42,0.51,4.25,-0.64,-0.13,0.04,0.0
2019,8.76,0.83,4.13,-0.58,-0.04,-0.04,0.0
2020,10.04,1.18,5.02,-0.52,0.15,-0.02,0.0
2021,12.22,0.88,4.99,-0.48,0.22,-0.05,0.0
2022,7.87,-0.02,3.72,-0.34,0.22,0.04,0.0
2023,8.34,0.41,4.22,-0.45,0.06,0.07,0.0
2024,8.83,0.2,4.16,-0.75,0.02,-0.05,0.0
2025,9.77,0.38,5.28,-0.65,0.19,-0.06,0.0
2026,9.97,0.16,5.25,-0.72,0.24,-0.15,0.0
2027,11.38,1.33,5.14,-0.69,0.26,-0.22,0.0
2028,8.26,0.6,4.37,-0.72,0.02,0.06,0.0
2029,8.75,1.11,4.1,-0.54,-0.03,0.03,0.0
2030,10.14,1.17,5.02,-0.55,0.08,-0.01,0.0
2031,10.17,0.36,5.54,-0.35,0.21,0.11,0.0
2032,8.25,0.74,4.13,-0.49,0.03,-0.01,0.0
2033,8.78,0.73,4.2,-0.69,-0.05,-0.07,0.0
2034,10.08,0.62,4.61,-0.65,0.21,-0.09,0.0
2035,9.65,0.53,5.37,-0.63,0.24,-0.03,0.0
2036,9.45,0.2,5.21,-0.56,0.27,0.05,0.0
2037,10.94,1.26,5.15,-0.58,0.18,-0.08,0.0
2038,8.62,0.68,4.11,-0.43,0.05,0.07,0.0
2039,10.17,1.02,4.81,-0.49,0.06,0.04,0.0
2040,9.71,1.26,5.4,-0.6,0.25,-0.14,0.0
2041,11.18,-0.09,4.19,-0.56,-0.25,-0.09,0.0
2042,8.61,0.72,4.27,-0.46,-0.0,0.14,0.0
2043,8.83,0.45,4.24,-0.73,-0.07,-0.02,0.0
2044,10.18,0.42,5.19,-0.81,0.02,-0.1,0.0
2045,10.91,0.6,5.1,-0.66,0.24,-0.08,0.0
2046,8.51,0.87,4.22,-0.64,-0.0,0.1,0.0
2047,8.65,0.79,4.0,-0.47,0.04,0.02,0.0
2048,9.98,1.07,5.08,-0.5,0.13,0.01,0.0
2049,9.85,1.17,5.17,-0.51,0.2,0.02,0.0
2050,9.56,0.68,5.43,-0.42,0.22,0.06,0.0
2051,8.54,0.76,4.14,-0.53,-0.03,0.02,0.0
2052,9.87,0.13,4.4,-0.83,0.03,-0.16,0.0
2053,9.91,0.52,5.01,-0.81,0.04,-0.13,0.0
2054,9.61,0.2,5.4,-0.6,0.16,0.08,0.0
2055,11.61,0.98,5.02,-0.65,0.26,-0.08,0.0
2056,8.13,0.86,4.27,-0.65,-0.03,0.02,0.0
2057,8.61,0.8,4.43,-0.55,-0.03,0.03,0.0
2058,10.13,0.96,5.3,-0.52,0.03,0.02,0.0
2059,9.35,1.02,5.32,-0.41,0.28,0.02,0.0
2060,12.06,0.92,4.73,-0.39,0.32,0.03,0.0
2061,8.38,0.46,4.07,-0.45,0.02,0.08,0.0
2062,9.56,-0.03,4.53,-0.72,-0.03,-0.1,0.0
2063,8.67,0.3,3.94,-0.7,0.05,-0.02,0.0
2064,9.9,0.36,5.11,-0.69,0.12,-0.06,0.0
2065,10.94,1.13,5.36,-0.62,0.2,-0.04,0.0
2066,8.43,0.62,4.17,-0.66,-0.05,0.05,0.0
2067,8.79,0.86,3.99,-0.52,-0.03,0.02,0.0
2068,10.23,1.06,4.96,-0.47,0.14,0.04,0.0
2069,11.54,0.76,5.01,-0.56,0.17,0.0,0.0
2070,8.29,0.45,4.24,-0.54,0.08,0.02,0.0
2071,9.88,-0.12,4.52,-0.8,-0.06,-0.19,0.0
2072,8.59,0.33,4.56,-0.74,0.07,-0.07,0.0
2073,9.91,0.55,5.3,-0.6,0.2,-0.14,0.0
2074,9.96,1.31,4.87,-0.71,0.13,-0.11,0.0
2075,9.4,0.85,5.07,-0.66,0.34,-0.12,0.0
2076,11.81,0.6,4.95,-0.65,0.24,-0.11,0.0
2077,11.36,-0.0,3.99,-0.5,-0.38,-0.13,0.0
2078,8.2,0.53,4.17,-0.52,0.01,0.03,0.0
2079,8.66,0.2,3.87,-0.56,0.05,-0.02,0.0
2080,9.87,0.45,5.09,-0.63,0.21,0.02,0.0
2081,9.87,0.39,5.19,-0.68,0.21,0.04,0.0
2082,11.19,0.8,4.62,-0.63,0.25,-0.01,0.0
2083,8.63,0.67,4.19,-0.89,-0.11,0.02,0.0
2084,8.63,0.5,4.11,-0.55,-0.08,-0.01,0.0
2085,9.92,0.91,5.16,-0.57,0.14,-0.06,0.0
2086,11.33,0.62,5.06,-0.48,0.19,-0.03,0.0
2087,11.48,-0.15,3.74,-0.49,-0.27,-0.06,0.0
2088,8.84,0.12,4.13,-0.87,-0.0,-0.13,0.0
2089,9.83,0.32,5.06,-0.7,0.15,-0.12,0.0
2090,10.84,0.75,5.02,-0.6,0.28,-0.0,0.0
2091,8.23,0.95,4.43,-0.67,0.04,0.0,0.0
2092,8.9,1.07,4.36,-0.55,0.02,0.02,0.0
2093,10.09,1.13,4.93,-0.5,0.08,-0.01,0.0
2094,9.39,1.05,5.61,-0.49,0.21,-0.03,0.0
2095,11.07,0.67,4.92,-0.47,0.27,-0.01,0.0
2096,9.19,0.62,3.9,-0.42,-0.04,0.1,0.0
2097,8.78,0.71,4.14,-0.71,-0.05,-0.03,0.0
2098,9.75,0.4,5.21,-0.69,0.13,-0.02,0.0
2099,11.0,0.85,5.26,-0.63,0.14,-0.06,0.0
2100,8.24,0.62,4.36,-0.68,0.0,0.0,0.0
2101,8.77,0.64,4.23,-0.5,-0.04,0.03,0.0
2102,10.02,1.11,4.97,-0.46,0.04,0.02,0.0
2103,9.52,1.08,5.24,-0.62,0.13,-0.17,0.0
2104,11.03,0.77,5.07,-0.67,0.17,-0.15,0.0
2105,8.96,0.58,3.96,-0.31,0.02,0.1,0.0
2106,9.56,0.6,5.12,-0.74,0.26,-0.03,0.0
2107,9.13,0.07,4.98,-0.76,0.29,0.1,0.0
2108,8.01,0.48,3.41,-0.66,0.25,0.14,0.0
2109,8.21,0.73,4.36,-0.91,0.04,-0.11,0.0
2110,8.81,0.79,4.15,-0.6,0.09,-0.11,0.0
2111,9.45,1.19,5.31,-0.46,0.02,0.03,0.0
2112,10.87,0.88,5.31,-0.61,0.18,-0.03,0.0
2113,8.55,0.63,4.37,-0.48,0.08,0.08,0.0
2114,9.57,0.07,4.24,-0.72,-0.06,-0.06,0.0
2115,9.94,0.57,5.28,-0.66,0.03,-0.05,0.0
2116,11.2,1.07,5.58,-0.63,0.15,-0.11,0.0
2117,8.08,0.62,4.04,-0.61,0.01,0.09,0.0
2118,8.58,0.79,4.62,-0.53,-0.02,0.04,0.0
2119,9.67,1.03,5.53,-0.51,0.18,0.0,0.0
2120,8.76,0.34,4.1,-0.44,0.29,-0.09,0.0
2121,8.04,0.74,4.06,-0.47,0.04,0.1,0.0
2122,9.65,0.06,4.37,-0.7,-0.15,-0.06,0.0
2123,8.71,0.5,3.88,-0.73,0.03,-0.04,0.0
2124,10.02,0.41,5.2,-0.72,-0.02,-0.09,0.0
2125,11.22,1.0,4.98,-0.69,0.22,-0.08,0.0
2126,8.24,0.24,3.31,-0.62,0.38,0.13,0.0
2127,8.66,0.51,4.22,-0.84,-0.23,-0.07,0.0
2128,8.83,0.61,3.96,-0.71,-0.02,-0.05,0.0
2129,10.18,0.81,4.97,-0.51,0.03,-0.02,0.0
2130,8.3,1.02,4.15,-0.36,0.04,0.12,0.0
2131,9.56,0.06,4.17,-0.68,-0.14,-0.06,0.0
2132,9.76,0.73,5.27,-0.67,0.21,-0.05,0.0
2133,11.01,0.79,5.3,-0.75,0.16,-0.17,0.0
2134,8.35,0.72,4.1,-0.75,-0.01,0.04,0.0
2135,8.61,0.6,4.33,-0.49,-0.05,0.04,0.0
2136,10.35,1.03,4.88,-0.5,0.04,-0.0,0.0
2137,11.46,0.51,4.87,-0.4,0.29,0.02,0.0
2138,8.36,0.72,4.38,-0.49,0.05,0.05,0.0
2139,8.72,0.34,4.24,-0.73,-0.01,-0.01,0.0
2140,9.85,0.23,5.38,-0.64,0.11,-0.03,0.0
2141,11.3,1.18,5.23,-0.65,0.19,-0.21,0.0
2142,8.51,0.54,4.0,-0.63,0.01,0.07,0.0
2143,8.69,1.02,3.96,-0.48,0.05,0.03,0.0
2144,10.17,1.13,5.14,-0.67,0.1,-0.02,0.0
2145,10.37,0.42,5.15,-0.43,0.31,-0.01,0.0
2146,8.48,0.62,4.08,-0.5,-0.07,0.04,0.0
2147,9.5,0.17,4.65,-0.8,-0.1,-0.1,0.0
2148,8.79,0.47,4.19,-0.75,-0.02,-0.04,0.0
2149,9.49,-0.01,4.93,-0.68,0.1,-0.0,0.0
2150,9.56,0.47,5.42,-0.66,0.16,0.0,0.0
2151,11.59,0.78,5.4,-0.74,0.17,-0.2,0.0
2152,8.11,0.74,4.09,-0.51,-0.05,0.1,0.0
2153,8.68,0.87,4.13,-0.51,-0.02,0.02,0.0
2154,10.3,0.87,4.61,-0.56,0.11,-0.05,0.0
2155,10.66,1.08,5.11,-0.52,0.27,-0.02,0.0
2156,8.86,0.85,4.11,-0.45,0.05,0.11,0.0
2157,8.54,0.37,4.23,-0.76,-0.02,-0.04,0.0
2158,9.67,0.23,5.56,-0.74,0.14,-0.04,0.0
2159,8.33,0.59,4.02,-0.7,-0.04,0.02,0.0
2160,8.89,0.54,4.25,-0.48,0.07,-0.01,0.0
2161,9.95,1.01,5.16,-0.54,0.06,-0.07,0.0
2162,11.28,0.64,4.69,-0.4,0.31,-0.03,0.0
2163,8.42,0.69,4.03,-0.35,0.01,0.07,0.0
2164,9.66,0.4,5.04,-0.86,0.2,-0.11,0.0
2165,9.66,0.18,5.23,-0.85,0.24,-0.17,0.0
2166,7.86,0.31,3.54,-0.79,0.27,-0.03,0.0
2167,8.12,1.14,4.27,-0.65,0.09,0.0,0.0
2168,8.49,1.22,4.57,-0.51,-0.05,0.09,0.0
2169,10.13,1.22,5.37,-0.53,0.01,0.0,0.0
2170,11.2,1.05,5.15,-0.41,0.3,0.08,0.0
2171,8.28,0.67,4.13,-0.5,-0.03,0.08,0.0
2172,9.51,0.25,4.37,-0.74,-0.05,-0.13,0.0
2173,9.04,0.21,4.07,-0.77,0.03,-0.06,0.0
2174,9.77,0.4,5.32,-0.71,0.13,-0.1,0.0
2175,8.54,0.89,4.33,-0.64,0.01,0.04,0.0
2176,8.55,0.93,4.34,-0.47,-0.04,0.0,0.0
2177,9.87,1.18,5.16,-0.5,0.13,0.02,0.0
2178,9.4,1.07,5.72,-0.5,0.2,0.02,0.0
2179,8.42,0.72,4.23,-0.58,0.04,0.02,0.0
2180,9.49,0.18,4.39,-0.89,-0.12,-0.19,0.0
2181,9.83,0.49,5.51,-0.63,0.16,-0.01,0.0
2182,10.78,0.88,5.59,-0.55,0.18,-0.04,0.0
2183,8.41,0.71,4.19,-0.64,0.01,0.02,0.0
2184,8.77,1.13,4.25,-0.51,-0.01,0.06,0.0
2185,9.94,1.08,4.99,-0.51,0.12,0.01,0.0
2186,11.78,0.91,5.47,-0.43,0.15,-0.02,0.0
2187,8.51,0.73,4.03,-0.42,0.14,0.09,0.0
2188,9.6,0.04,4.29,-0.74,-0.16,-0.17,0.0
2189,8.86,0.21,4.13,-0.71,-0.03,-0.01,0.0
2190,9.89,0.55,4.98,-0.75,0.14,-0.05,0.0
2191,9.78,0.2,5.1,-0.74,0.18,-0.04,0.0
2192,9.63,-0.03,5.17,-0.72,0.22,-0.02,0.0
2193,10.85,1.09,5.1,-0.71,0.31,-0.04,0.0
2194,8.88,0.41,4.25,-0.65,0.35,0.07,0.0
2195,8.56,0.52,4.34,-0.76,-0.13,-0.02,0.0
2196,8.63,0.82,4.27,-0.54,0.01,0.01,0.0
2197,10.19,1.03,5.34,-0.54,0.03,-0.03,0.0
2198,8.51,0.84,4.26,-0.52,0.06,0.03,0.0
2199,9.45,0.11,4.32,-0.81,-0.11,-0.16,0.0
2200,9.85,0.52,5.18,-0.69,0.12,-0.04,0.0
2201,9.6,0.01,5.08,-0.71,0.19,-0.07,0.0
2202,11.46,1.52,4.88,-0.63,0.22,-0.21,0.0
2203,8.23,1.1,3.96,-0.53,-0.04,0.08,0.0
2204,8.74,1.16,3.95,-0.48,0.01,0.05,0.0
2205,10.19,1.13,4.95,-0.54,0.05,0.02,0.0
2206,10.68,0.77,5.1,-0.37,0.39,0.08,0.0
2207,8.38,0.92,4.15,-0.58,0.05,0.01,0.0
2208,9.53,0.24,4.29,-0.87,-0.1,-0.19,0.0
2209,9.75,0.59,5.18,-0.72,0.19,-0.09,0.0
2210,8.17,0.91,3.94,-0.54,-0.09,0.02,0.0
2211,8.68,1.05,4.0,-0.48,0.0,0.08,0.0
2212,10.0,1.28,5.06,-0.51,0.11,-0.09,0.0
2213,11.0,0.85,4.69,-0.51,0.31,0.05,0.0
2214,8.39,1.09,4.13,-0.43,0.09,0.05,0.0
2215,9.34,0.25,4.04,-0.75,-0.04,-0.19,0.0
2216,8.82,0.28,3.97,-0.77,0.04,-0.05,0.0
2217,10.07,0.76,5.08,-0.77,0.18,-0.06,0.0
2218,8.27,0.61,3.86,-0.72,0.3,0.03,0.0
2219,8.2,0.84,4.38,-0.65,-0.01,0.07,0.0
2220,8.71,1.22,4.12,-0.57,-0.0,0.03,0.0
2221,10.05,1.12,4.98,-0.6,0.02,-0.09,0.0
2222,9.32,1.16,5.53,-0.66,0.2,-0.11,0.0
2223,11.66,0.96,4.89,-0.48,0.26,0.02,0.0
2224,8.45,0.69,4.17,-0.52,0.04,0.05,0.0
2225,9.45,0.04,4.24,-0.74,-0.15,-0.13,0.0
2226,9.61,0.43,5.04,-0.69,0.08,-0.06,0.0
2227,9.57,0.42,5.22,-0.63,0.15,-0.02,0.0
2228,8.29,0.61,3.96,-0.63,-0.03,0.03,0.0
2229,8.94,0.71,3.74,-0.52,0.0,-0.0,0.0
2230,9.72,1.15,5.11,-0.56,0.16,-0.03,0.0
2231,8.37,0.42,3.75,-0.39,0.23,-0.06,0.0
2232,8.17,0.72,4.11,-0.5,0.05,0.08,0.0
2233,8.82,0.31,3.91,-0.78,-0.01,-0.05,0.0
2234,9.68,0.49,4.99,-0.68,0.17,-0.06,0.0
2235,8.23,0.92,4.25,-0.68,0.11,0.1,0.0
2236,8.71,0.68,4.53,-0.56,-0.06,0.02,0.0
2237,9.92,0.93,5.06,-0.43,0.02,0.02,0.0
2238,11.33,0.43,4.95,-0.57,0.26,-0.05,0.0
2239,8.74,0.58,4.08,-0.48,0.02,0.01,0.0
2240,8.86,0.23,3.99,-0.76,0.05,-0.09,0.0
2241,9.84,0.63,5.04,-0.62,0.17,-0.1,0.0
2242,11.51,1.31,5.23,-0.61,0.26,-0.01,0.0
2243,8.26,0.92,4.33,-0.64,0.13,0.0,0.0
2244,8.77,0.75,4.56,-0.51,0.05,0.01,0.0
2245,9.41,1.51,5.46,-0.41,0.13,-0.03,0.0
2246,8.66,0.41,3.98,-0.49,0.2,-0.07,0.0
2247,8.19,0.79,4.33,-0.51,-0.06,0.03,0.0
2248,8.73,0.77,4.26,-0.61,-0.02,-0.0,0.0
2249,10.02,0.55,5.44,-0.58,0.15,0.01,0.0
2250,10.12,0.47,5.53,-0.57,0.21,0.13,0.0
2251,8.18,0.82,4.14,-0.73,0.01,-0.04,0.0
2252,8.63,1.06,4.35,-0.6,0.03,-0.04,0.0
2253,9.75,1.08,5.45,-0.65,0.11,-0.04,0.0
2254,10.96,0.94,5.16,-0.52,0.24,0.05,0.0
2255,8.34,0.74,4.4,-0.46,-0.0,0.1,0.0
2256,9.32,0.23,4.38,-0.77,-0.03,-0.09,0.0
2257,9.9,0.17,5.11,-0.76,0.08,-0.06,0.0
2258,9.96,0.27,5.3,-0.67,0.15,0.0,0.0
2259,9.33,-0.02,5.14,-0.65,0.2,0.03,0.0
2260,10.84,1.91,4.7,-0.6,0.16,-0.18,0.0
2261,8.25,0.66,4.22,-0.76,-0.02,-0.01,0.0
2262,8.75,0.86,4.33,-0.48,0.01,0.0,0.0
2263,10.25,1.63,5.08,-0.55,0.09,-0.08,0.0
2264,11.39,1.04,4.98,-0.56,0.25,-0.04,0.0
2265,8.62,1.23,4.06,-0.38,0.07,0.11,0.0
2266,9.41,0.33,3.94,-0.65,-0.1,-0.05,0.0
2267,8.98,0.62,3.85,-0.63,0.03,-0.01,0.0
2268,9.92,0.32,5.06,-0.66,0.16,0.09,0.0
2269,8.01,0.92,4.2,-0.71,0.07,-0.03,0.0
2270,9.73,1.01,5.0,-0.52,0.1,0.02,0.0
2271,9.47,0.95,5.2,-0.33,0.27,0.07,0.0
2272,11.99,0.73,5.07,-0.31,0.25,0.08,0.0
2273,11.41,-0.23,3.85,-0.48,-0.38,-0.05,0.0
2274,8.39,0.66,4.17,-0.42,0.08,0.15,0.0
2275,8.73,0.22,4.26,-0.75,0.04,-0.08,0.0
2276,9.77,0.37,5.23,-0.69,0.14,-0.05,0.0
2277,11.35,1.0,5.25,-0.67,0.19,-0.09,0.0
2278,8.5,0.38,4.13,-0.66,0.05,-0.09,0.0
2279,8.83,1.16,4.08,-0.53,0.04,-0.09,0.0
2280,9.85,1.4,5.19,-0.45,0.11,0.11,0.0
2281,8.55,0.79,4.07,-0.5,0.02,0.09,0.0
2282,9.12,0.27,4.15,-0.79,0.01,-0.04,0.0
2283,8.97,0.4,4.25,-0.81,0.04,-0.05,0.0
2284,9.66,0.53,5.04,-0.75,0.09,-0.1,0.0
2285,9.66,0.43,5.22,-0.72,0.07,-0.06,0.0
2286,10.6,0.81,5.29,-0.59,0.16,0.03,0.0
2287,8.97,1.16,3.89,-0.56,-0.01,-0.04,0.0
2288,10.29,0.91,4.73,-0.46,0.07,-0.0,0.0
2289,9.48,1.28,5.13,-0.47,0.22,0.01,0.0
2290,11.52,0.94,4.82,-0.32,0.28,0.04,0.0
2291,8.17,0.82,3.99,-0.43,0.03,0.04,0.0
2292,8.97,0.25,4.35,-0.81,-0.03,-0.1,0.0
2293,9.33,0.18,5.28,-0.53,0.18,0.1,0.0
2294,11.33,1.07,4.87,-0.58,0.26,0.01,0.0
2295,8.06,0.69,4.11,-0.7,-0.07,-0.03,0.0
2296,8.91,0.91,4.04,-0.49,0.02,0.0,0.0
2297,9.58,1.29,5.12,-0.58,0.14,-0.05,0.0
2298,11.3,1.07,5.07,-0.46,0.21,-0.04,0.0
2299,8.39,0.83,3.99,-0.46,-0.03,0.08,0.0
2300,8.77,0.45,3.65,-0.81,-0.03,-0.04,0.0
2301,9.97,0.45,5.07,-0.8,0.13,-0.09,0.0
2302,8.31,1.13,4.17,-0.58,-0.02,0.01,0.0
2303,8.64,1.14,4.13,-0.55,0.03,0.04,0.0
2304,10.1,1.3,5.06,-0.63,0.14,-0.02,0.0
2305,10.2,1.12,5.46,-0.61,0.31,-0.09,0.0
2306,8.69,0.89,4.37,-0.45,0.05,0.09,0.0
2307,8.7,0.51,4.45,-0.66,0.01,-0.0,0.0
2308,9.61,0.73,5.17,-0.71,0.06,-0.07,0.0
2309,8.71,1.03,4.36,-0.53,0.01,-0.01,0.0
2310,9.18,1.06,5.49,-0.47,0.11,-0.04,0.0
2311,11.36,0.75,5.72,-0.36,0.05,-0.01,0.0
2312,8.39,0.85,4.43,-0.39,0.03,0.08,0.0
2313,9.67,0.09,4.4,-0.71,-0.09,-0.05,0.0
2314,9.59,0.49,5.37,-0.68,0.16,-0.05,0.0
2315,8.1,0.93,4.48,-0.74,0.07,-0.05,0.0
2316,8.83,0.78,4.65,-0.66,0.07,-0.03,0.0
2317,9.57,1.09,5.27,-0.5,0.01,-0.04,0.0
2318,8.48,0.66,4.4,-0.37,-0.04,0.14,0.0
2319,9.1,0.19,4.58,-0.68,-0.14,-0.04,0.0
2320,9.61,-0.02,5.65,-0.68,0.05,0.0,0.0
2321,11.61,1.14,5.32,-0.6,0.14,-0.14,0.0
2322,8.03,0.84,4.28,-0.61,-0.06,-0.01,0.0
2323,8.93,0.78,4.19,-0.47,-0.01,0.04,0.0
2324,10.5,0.65,5.19,-0.4,0.2,-0.05,0.0
2325,8.24,0.55,3.99,-0.44,-0.0,0.05,0.0
2326,8.91,0.66,4.01,-0.8,0.0,-0.1,0.0
2327,9.96,0.33,4.95,-0.69,0.21,-0.07,0.0
2328,10.78,0.97,5.63,-0.54,0.15,0.04,0.0
2329,8.44,0.81,4.2,-0.75,-0.09,-0.02,0.0
2330,8.74,0.88,3.69,-0.59,0.0,-0.02,0.0
2331,9.82,1.13,4.9,-0.54,0.06,-0.01,0.0
2332,11.47,0.91,5.1,-0.44,0.24,-0.02,0.0
2333,8.54,0.88,4.11,-0.45,-0.0,0.06,0.0
2334,8.54,0.37,4.2,-0.72,0.04,-0.01,0.0
2335,10.32,0.4,5.11,-0.72,0.03,-0.06,0.0
2336,10.64,1.28,4.88,-0.67,0.22,-0.12,0.0
2337,8.07,0.26,3.76,-0.68,0.32,0.11,0.0
2338,8.47,0.65,3.99,-0.81,-0.04,0.02,0.0
2339,8.88,0.52,4.04,-0.65,0.02,0.02,0.0
2340,10.03,0.96,5.14,-0.48,0.08,0.01,0.0
2341,9.72,1.06,5.51,-0.61,0.23,-0.12,0.0
2342,8.52,0.81,4.33,-0.48,0.03,0.02,0.0
2343,9.55,0.08,4.35,-0.7,-0.09,-0.12,0.0
2344,8.65,0.47,4.41,-0.68,-0.04,-0.03,0.0
2345,9.83,0.52,5.18,-0.68,0.2,-0.01,0.0
2346,8.47,0.62,4.0,-0.65,-0.13,0.03,0.0
2347,10.11,0.85,4.75,-0.56,0.21,0.06,0.0
2348,9.14,0.96,5.11,-0.68,0.15,-0.08,0.0
2349,8.44,0.63,4.44,-0.35,0.07,0.06,0.0
2350,8.71,0.28,4.46,-0.78,-0.03,-0.07,0.0
2351,9.89,0.42,5.45,-0.76,0.09,-0.09,0.0
2352,9.1,-0.03,5.24,-0.69,0.22,0.07,0.0
2353,8.19,1.01,4.23,-0.7,-0.04,-0.05,0.0
2354,8.77,0.92,4.22,-0.62,-0.05,-0.02,0.0
2355,10.1,1.16,5.14,-0.68,0.03,-0.07,0.0
2356,8.37,0.68,4.0,-0.45,-0.0,0.12,0.0
2357,8.87,0.4,3.94,-0.71,0.02,-0.07,0.0
2358,10.1,0.2,4.69,-0.79,0.04,-0.14,0.0
2359,9.44,0.15,4.92,-0.66,0.34,-0.01,0.0
2360,11.11,1.43,4.79,-0.54,0.33,-0.06,0.0
2361,8.58,0.71,4.3,-0.57,0.03,0.05,0.0
2362,8.69,0.85,4.16,-0.54,-0.08,0.08,0.0
2363,10.43,1.22,4.78,-0.43,-0.02,0.07,0.0
2364,10.34,0.73,5.49,-0.37,0.26,-0.02,0.0
2365,8.93,0.93,3.96,-0.41,-0.11,0.05,0.0
2366,9.11,0.54,3.66,-0.61,0.0,0.01,0.0
2367,8.94,0.64,3.56,-0.7,0.06,-0.05,0.0
2368,9.96,0.67,4.86,-0.66,0.18,-0.06,0.0
2369,11.35,1.22,5.06,-0.71,0.36,-0.12,0.0
2370,11.27,1.0,3.97,-0.72,-0.22,-0.16,0.0
2371,8.21,0.87,4.35,-0.69,-0.01,-0.01,0.0
2372,8.72,0.99,4.28,-0.45,-0.0,0.03,0.0
2373,9.75,1.26,5.25,-0.54,0.09,-0.04,0.0
2374,8.34,0.61,4.59,-0.43,0.17,0.03,0.0
2375,8.49,0.47,4.87,-0.7,0.06,-0.06,0.0
2376,9.65,0.64,5.7,-0.67,0.06,-0.05,0.0
2377,10.05,0.3,6.12,-0.68,0.02,0.02,0.0
2378,8.16,0.57,4.41,-0.68,-0.07,-0.02,0.0
2379,9.11,1.64,4.61,-0.54,-0.13,-0.08,0.0
2380,8.64,0.87,4.66,-0.54,-0.03,-0.0,0.0
2381,9.87,1.58,5.46,-0.67,0.12,-0.06,0.0
2382,11.27,0.83,5.38,-0.53,0.27,0.07,0.0
2383,8.68,0.65,4.53,-0.5,0.05,0.07,0.0
2384,8.76,0.43,4.46,-0.83,0.02,-0.1,0.0
2385,9.76,0.51,5.41,-0.66,0.11,-0.04,0.0
2386,9.88,0.44,5.67,-0.69,0.09,-0.01,0.0
2387,8.58,0.72,4.24,-0.71,0.02,0.05,0.0
2388,8.66,0.99,4.1,-0.55,0.06,-0.03,0.0
2389,10.02,1.38,4.95,-0.61,0.01,-0.08,0.0
2390,9.5,1.24,5.35,-0.57,0.27,-0.04,0.0
2391,8.72,0.54,3.94,-0.55,0.07,0.07,0.0
2392,9.54,0.4,4.44,-0.74,0.02,-0.17,0.0
2393,8.82,0.37,4.24,-0.79,0.2,-0.04,0.0
2394,9.66,0.47,5.63,-0.66,0.24,-0.01,0.0
2395,11.09,0.96,5.36,-0.64,0.09,-0.14,0.0
2396,8.15,0.74,4.36,-0.52,0.02,0.04,0.0
2397,8.77,1.26,4.01,-0.5,0.0,0.04,0.0
2398,9.94,1.22,5.13,-0.65,0.13,-0.03,0.0
2399,9.72,1.38,5.07,-0.68,0.23,-0.06,0.0
2400,9.47,1.07,5.56,-0.68,0.28,-0.08,0.0
2401,11.77,-0.09,4.29,-0.39,-0.42,-0.06,0.0
2402,8.72,0.46,4.37,-0.66,0.0,-0.07,0.0
2403,9.99,0.57,5.2,-0.59,0.15,-0.02,0.0
2404,9.94,0.07,5.42,-0.58,0.22,0.04,0.0
2405,8.49,0.76,4.13,-0.72,-0.08,0.06,0.0
2406,8.56,0.78,4.23,-0.59,0.03,0.01,0.0
2407,10.23,1.24,5.1,-0.66,0.07,-0.08,0.0
2408,9.74,0.88,5.31,-0.68,0.2,-0.1,0.0
2409,8.46,0.65,3.83,-0.43,-0.05,0.09,0.0
2410,9.59,0.22,4.36,-0.7,-0.07,-0.07,0.0
2411,8.99,0.67,4.06,-0.71,0.04,-0.02,0.0
2412,10.01,0.4,5.24,-0.61,0.16,-0.01,0.0
2413,10.5,0.79,5.26,-0.64,0.19,-0.07,0.0
2414,8.37,0.76,4.33,-0.63,0.05,0.01,0.0
2415,8.83,1.16,3.92,-0.57,-0.1,0.09,0.0
2416,9.79,0.95,5.43,-0.52,0.09,-0.02,0.0
2417,11.31,0.85,4.86,-0.53,0.2,-0.0,0.0
2418,8.83,0.71,3.96,-0.45,-0.0,0.11,0.0
2419,8.94,0.52,3.94,-0.65,-0.04,-0.07,0.0
2420,9.84,0.54,4.94,-0.57,0.17,-0.0,0.0
2421,11.1,1.37,5.01,-0.55,0.21,-0.1,0.0
2422,8.41,0.87,4.01,-0.64,-0.05,0.06,0.0
2423,8.83,0.99,4.08,-0.56,0.1,0.02,0.0
2424,9.75,1.38,5.12,-0.55,0.14,-0.02,0.0
2425,9.2,0.95,5.53,-0.61,0.25,-0.08,0.0
2426,8.58,0.61,3.67,-0.47,0.25,-0.15,0.0
2427,8.43,1.05,4.26,-0.51,0.06,-0.0,0.0
2428,8.65,0.63,4.25,-0.73,0.02,-0.03,0.0
2429,9.84,0.62,5.34,-0.68,0.14,-0.07,0.0
2430,8.3,1.0,4.53,-0.68,0.02,-0.05,0.0
2431,8.38,1.43,4.58,-0.52,0.09,0.04,0.0
2432,9.78,1.23,5.23,-0.58,-0.01,-0.02,0.0
2433,8.04,0.72,4.27,-0.59,0.03,0.03,0.0
2434,9.42,0.16,4.51,-0.81,-0.14,-0.14,0.0
2435,9.53,0.39,5.26,-0.57,0.11,0.0,0.0
2436,9.77,0.22,5.44,-0.52,0.2,0.01,0.0
2437,11.34,0.9,5.2,-0.54,0.16,-0.11,0.0
2438,8.22,0.76,4.34,-0.62,-0.08,-0.0,0.0
2439,8.65,1.07,4.11,-0.44,-0.0,0.04,0.0
2440,10.02,1.37,5.07,-0.47,0.05,0.06,0.0
2441,9.45,1.34,5.36,-0.55,0.18,0.03,0.0
2442,11.62,0.82,4.99,-0.45,0.24,0.08,0.0
2443,9.31,0.14,4.4,-0.82,-0.01,-0.13,0.0
2444,9.92,0.4,5.29,-0.66,0.08,-0.06,0.0
2445,10.88,1.11,5.5,-0.56,0.28,-0.01,0.0
2446,9.33,0.61,3.83,-0.7,0.4,0.05,0.0
2447,8.26,0.88,4.45,-0.66,-0.02,-0.05,0.0
2448,8.54,0.82,4.07,-0.59,-0.08,0.06,0.0
2449,10.05,1.23,4.91,-0.29,0.05,0.02,0.0
2450,9.45,1.79,5.13,-0.38,0.2,-0.03,0.0
2451,11.27,0.9,5.01,-0.57,0.3,0.07,0.0
2452,8.32,1.12,4.15,-0.54,0.02,0.06,0.0
2453,9.47,0.1,4.45,-0.78,-0.05,-0.12,0.0
2454,9.94,0.47,5.37,-0.65,0.11,-0.06,0.0
2455,11.07,1.25,5.41,-0.59,0.13,-0.08,0.0
2456,8.36,0.45,4.18,-0.72,0.04,0.02,0.0
2457,8.68,0.74,4.23,-0.6,0.04,-0.0,0.0
2458,9.45,1.4,5.39,-0.6,0.16,-0.15,0.0
2459,9.34,0.95,5.46,-0.57,0.26,-0.13,0.0
2460,11.29,0.82,4.79,-0.59,0.29,-0.04,0.0
2461,8.2,0.87,4.25,-0.43,0.02,0.07,0.0
2462,9.41,0.23,4.32,-0.68,-0.05,-0.08,0.0
2463,8.78,0.61,4.19,-0.72,0.02,-0.03,0.0
2464,9.69,0.72,5.13,-0.68,0.16,-0.06,0.0
2465,9.26,0.17,5.48,-0.57,0.24,0.07,0.0
2466,10.96,0.85,5.63,-0.56,0.17,-0.05,0.0
2467,8.25,1.02,4.26,-0.71,-0.08,-0.01,0.0
2468,8.87,1.01,4.57,-0.52,-0.07,0.07,0.0
2469,8.55,1.12,4.16,-0.51,-0.01,0.05,0.0
2470,10.09,1.23,5.05,-0.55,0.13,0.03,0.0
2471,9.71,1.05,5.35,-0.49,0.29,0.04,0.0
2472,9.36,0.08,4.46,-0.83,-0.06,-0.2,0.0
2473,8.52,0.33,4.32,-0.79,0.05,-0.11,0.0
2474,10.06,0.24,5.37,-0.69,0.09,-0.08,0.0
2475,9.35,0.08,5.53,-0.5,0.22,0.11,0.0
2476,10.64,0.84,5.02,-0.47,0.33,0.06,0.0
2477,7.92,0.43,4.44,-0.76,-0.01,0.0,0.0
2478,8.8,0.8,4.13,-0.51,-0.2,-0.02,0.0
2479,9.99,1.08,4.74,-0.52,0.06,-0.03,0.0
2480,9.82,1.13,5.23,-0.57,0.11,-0.01,0.0
2481,9.71,1.06,5.22,-0.59,0.19,-0.05,0.0
2482,11.39,0.6,4.73,-0.4,0.25,-0.03,0.0
2483,11.13,0.19,3.83,-0.29,-0.31,-0.04,0.0
2484,8.41,0.96,4.02,-0.42,0.08,0.03,0.0
2485,8.69,0.78,4.21,-0.78,0.08,-0.02,0.0
2486,9.81,0.52,5.18,-0.78,0.06,-0.08,0.0
2487,8.4,0.72,4.09,-0.74,-0.09,-0.01,0.0
2488,9.89,1.02,5.08,-0.6,0.1,-0.02,0.0
2489,9.65,0.98,5.41,-0.6,0.22,-0.03,0.0
2490,8.54,0.91,4.34,-0.47,0.0,0.04,0.0
2491,9.39,0.07,4.34,-0.72,-0.11,-0.14,0.0
2492,8.67,0.38,4.1,-0.77,-0.0,-0.06,0.0
2493,10.17,0.3,5.16,-0.7,0.15,-0.09,0.0
2494,10.89,1.07,5.24,-0.64,0.29,-0.11,0.0
2495,8.34,0.63,4.13,-0.62,-0.03,0.06,0.0
2496,8.8,0.97,4.09,-0.53,0.11,0.02,0.0
2497,10.06,1.11,4.92,-0.43,0.05,-0.02,0.0
2498,11.09,1.24,5.17,-0.57,0.22,-0.06,0.0
2499,8.35,0.71,4.34,-0.52,0.05,-0.03,0.0
2500,9.35,0.19,4.31,-0.71,-0.08,-0.07,0.0
2501,8.74,0.59,4.34,-0.66,-0.05,-0.0,0.0
2502,9.63,0.77,5.37,-0.65,0.1,-0.01,0.0
2503,8.53,0.62,4.52,-0.59,-0.01,-0.07,0.0
2504,9.62,1.03,5.56,-0.64,0.14,-0.07,0.0
2505,11.74,0.99,5.29,-0.51,0.27,-0.06,0.0
2506,8.59,0.9,4.53,-0.59,0.05,0.06,0.0
2507,9.26,0.25,4.55,-0.83,-0.09,-0.15,0.0
2508,8.52,0.35,4.55,-0.8,-0.04,-0.08,0.0
2509,9.55,0.4,5.63,-0.75,0.03,-0.09,0.0
2510,10.89,0.94,4.77,-0.58,0.23,-0.08,0.0
2511,8.57,0.85,4.09,-0.43,0.0,0.1,0.0
2512,10.19,1.05,4.88,-0.53,-0.01,-0.01,0.0
2513,9.73,0.78,5.15,-0.54,0.24,-0.07,0.0
2514,11.48,0.65,5.03,-0.52,0.22,-0.04,0.0
2515,8.57,0.76,3.87,-0.41,0.05,0.0,0.0
2516,8.74,0.68,4.51,-0.66,0.04,-0.05,0.0
2517,10.22,0.3,5.22,-0.61,0.19,0.01,0.0
2518,10.78,0.95,5.77,-0.61,0.18,-0.0,0.0
2519,8.04,0.74,4.39,-0.79,-0.04,-0.0,0.0
2520,8.63,0.82,4.04,-0.53,0.01,0.01,0.0
2521,9.87,1.83,4.91,-0.54,0.18,-0.07,0.0
2522,9.46,1.2,5.42,-0.5,0.26,-0.13,0.0
2523,11.09,1.04,5.26,-0.46,0.16,-0.07,0.0
2524,8.21,0.91,4.12,-0.43,0.03,0.06,0.0
2525,9.71,0.15,4.41,-0.74,-0.14,-0.15,0.0
2526,8.79,0.25,4.01,-0.7,-0.01,-0.04,0.0
2527,9.77,0.67,5.16,-0.58,0.23,-0.03,0.0
2528,9.45,0.36,5.11,-0.41,0.2,0.11,0.0
2529,10.72,0.69,5.87,-0.43,0.06,0.06,0.0
2530,8.5,1.04,4.01,-0.56,0.11,0.09,0.0
2531,10.03,1.4,5.02,-0.78,0.06,-0.11,0.0
2532,11.08,0.62,5.24,-0.68,0.33,-0.05,0.0
2533,8.8,0.89,4.36,-0.59,0.06,0.05,0.0
2534,9.76,0.55,5.72,-0.69,0.06,-0.1,0.0
2535,8.38,0.6,4.68,-0.69,0.06,0.04,0.0
2536,8.62,0.76,4.37,-0.44,-0.05,0.1,0.0
2537,10.18,1.26,5.02,-0.44,0.1,0.04,0.0
2538,9.52,0.87,5.49,-0.54,0.34,-0.11,0.0
2539,11.55,0.91,5.21,-0.5,0.26,-0.14,0.0
2540,11.08,0.31,4.31,-0.21,-0.4,-0.02,0.0
2541,8.41,0.4,4.7,-0.31,-0.03,0.09,0.0
2542,8.71,0.57,4.28,-0.52,-0.12,0.01,0.0
2543,10.07,0.68,5.07,-0.64,0.02,-0.07,0.0
2544,11.42,1.15,5.18,-0.64,0.19,-0.04,0.0
2545,11.48,1.18,3.58,-0.77,-0.31,-0.09,0.0
2546,8.25,1.34,4.18,-0.92,0.17,0.09,0.0
2547,8.59,1.13,4.86,-0.84,-0.05,-0.03,0.0
2548,9.81,1.23,5.33,-0.63,0.15,-0.05,0.0
2549,9.5,1.05,5.55,-0.61,0.2,-0.13,0.0
2550,11.3,0.48,5.03,-0.54,0.25,-0.02,0.0
2551,10.72,0.07,4.47,-0.39,-0.3,0.01,0.0
2552,8.71,0.75,4.45,-0.4,0.06,0.05,0.0
2553,8.81,0.31,4.78,-0.72,-0.03,-0.1,0.0
2554,8.47,0.63,4.64,-0.73,-0.0,-0.08,0.0
2555,9.6,0.72,5.31,-0.67,-0.0,-0.11,0.0
2556,9.96,0.65,5.51,-0.67,0.08,-0.08,0.0
2557,10.65,0.83,5.47,-0.54,0.1,-0.02,0.0
2558,8.32,0.83,4.64,-0.66,0.01,0.01,0.0
2559,8.55,1.28,4.51,-0.49,0.03,0.04,0.0
2560,9.43,1.44,5.64,-0.68,0.19,-0.09,0.0
2561,8.4,0.81,4.66,-0.44,0.03,0.05,0.0
2562,9.18,0.21,4.83,-0.8,-0.11,-0.11,0.0
2563,9.81,0.65,5.77,-0.61,0.14,-0.02,0.0
2564,9.25,0.15,5.72,-0.69,0.24,0.01,0.0
2565,8.41,0.72,4.82,-0.59,0.06,0.03,0.0
2566,8.53,1.28,4.47,-0.55,0.0,0.0,0.0
2567,9.42,1.33,5.91,-0.5,0.33,-0.08,0.0
2568,10.42,1.1,5.29,-0.34,0.25,0.1,0.0
2569,8.4,0.8,4.4,-0.7,-0.02,-0.05,0.0
2570,9.52,0.37,4.9,-0.75,0.01,-0.15,0.0
2571,9.35,0.52,5.82,-0.74,0.1,-0.02,0.0
2572,10.87,0.97,6.28,-0.72,-0.04,-0.13,0.0
2573,8.36,1.11,4.73,-0.46,0.09,0.05,0.0
2574,10.0,1.45,5.57,-0.57,-0.04,-0.03,0.0
2575,9.19,1.61,5.61,-0.59,0.2,-0.05,0.0
2576,10.86,0.51,5.68,-0.52,0.11,0.15,0.0
2577,8.4,0.89,4.47,-0.55,0.03,0.04,0.0
2578,9.23,0.14,4.72,-0.88,-0.03,-0.16,0.0
2579,9.67,0.72,5.59,-0.8,0.04,-0.21,0.0
2580,8.28,0.83,4.44,-0.6,-0.03,0.05,0.0
2581,8.8,1.47,4.47,-0.53,0.03,0.01,0.0
2582,9.95,1.24,5.63,-0.69,0.01,-0.08,0.0
2583,11.17,0.48,4.11,-0.4,-0.27,-0.02,0.0
2584,8.43,0.73,4.66,-0.46,0.04,0.04,0.0
2585,9.35,0.19,4.83,-0.67,-0.09,-0.11,0.0
2586,8.3,0.53,4.68,-0.62,0.07,-0.01,0.0
2587,9.74,0.7,5.81,-0.5,0.15,-0.0,0.0
2588,10.12,0.43,6.06,-0.61,0.09,0.07,0.0
2589,8.16,0.83,4.73,-0.63,0.09,0.03,0.0
2590,8.44,1.3,4.91,-0.52,0.0,0.0,0.0
2591,9.19,1.21,5.74,-0.57,0.16,0.01,0.0
2592,11.16,0.92,5.33,-0.48,0.18,0.06,0.0
2593,8.7,0.61,4.44,-0.55,-0.02,0.04,0.0
2594,8.63,0.71,4.41,-0.75,0.07,-0.05,0.0
2595,9.78,0.43,5.54,-0.69,0.1,-0.03,0.0
2596,11.05,1.27,5.46,-0.71,0.19,-0.14,0.0
2597,8.18,0.85,4.64,-0.67,0.05,0.01,0.0
2598,8.5,1.06,4.64,-0.65,-0.04,0.1,0.0
2599,10.05,0.85,5.09,-0.44,-0.09,0.04,0.0
2600,10.8,0.79,5.32,-0.47,0.11,-0.06,0.0
2601,11.43,0.11,4.09,-0.46,-0.31,-0.09,0.0
2602,8.23,0.56,4.48,-0.48,0.03,0.01,0.0
2603,9.27,0.02,4.75,-0.76,0.01,-0.15,0.0
2604,9.86,0.51,5.49,-0.66,0.1,-0.07,0.0
2605,9.31,0.11,5.73,-0.61,0.21,0.01,0.0
2606,8.22,0.63,4.6,-0.57,-0.03,0.02,0.0
2607,8.78,1.23,4.4,-0.56,-0.01,0.01,0.0
2608,11.09,1.12,5.28,-0.54,0.12,0.04,0.0
2609,8.13,0.81,4.53,-0.46,0.08,0.1,0.0
2610,9.27,0.29,4.6,-0.73,-0.01,-0.12,0.0
2611,8.64,0.59,4.56,-0.74,0.08,-0.02,0.0
2612,9.77,0.58,5.6,-0.72,0.17,-0.06,0.0
2613,10.97,1.04,5.67,-0.74,0.12,-0.16,0.0
2614,8.15,0.93,4.58,-0.67,-0.05,0.04,0.0
2615,8.61,1.13,4.54,-0.53,-0.0,-0.04,0.0
2616,9.26,1.14,5.46,-0.45,0.16,0.01,0.0
2617,11.19,0.9,5.28,-0.41,0.08,0.05,0.0
2618,8.71,0.64,4.58,-0.35,0.07,0.16,0.0
2619,8.92,0.37,4.74,-0.73,-0.03,-0.08,0.0
2620,9.68,0.71,5.5,-0.82,0.1,-0.12,0.0
2621,8.37,1.13,4.38,-0.68,-0.06,0.04,0.0
2622,8.62,1.15,4.57,-0.58,-0.0,-0.01,0.0
2623,11.08,1.1,5.36,-0.43,0.21,0.13,0.0
2624,9.58,-0.05,4.71,-0.74,-0.08,-0.14,0.0
2625,8.51,0.3,4.65,-0.69,0.04,-0.08,0.0
2626,9.53,0.37,5.58,-0.71,0.11,-0.07,0.0
2627,11.47,1.38,5.58,-0.67,0.16,-0.21,0.0
2628,8.01,0.79,4.35,-0.61,-0.03,0.0,0.0
2629,8.73,1.43,4.14,-0.52,0.05,-0.0,0.0
2630,9.84,1.53,5.28,-0.54,0.12,0.02,0.0
2631,9.68,1.4,5.66,-0.54,0.14,0.02,0.0
2632,8.39,1.13,4.38,-0.46,0.07,-0.01,0.0
2633,9.18,0.12,4.27,-0.69,-0.09,-0.1,0.0
2634,8.66,0.86,4.41,-0.61,-0.02,0.0,0.0
2635,9.23,0.28,4.87,-0.66,-0.02,0.04,0.0
2636,9.44,0.63,5.47,-0.57,0.09,0.04,0.0
2637,11.68,1.71,5.18,-0.63,0.2,-0.14,0.0
2638,8.21,1.06,4.45,-0.63,-0.01,0.05,0.0
2639,8.76,1.16,4.37,-0.59,0.0,0.02,0.0
2640,9.6,1.22,5.36,-0.57,0.2,-0.02,0.0
2641,9.42,1.47,5.66,-0.66,0.23,-0.11,0.0
2642,10.83,0.76,5.53,-0.51,0.18,-0.03,0.0
2643,8.4,0.82,4.56,-0.51,-0.03,0.05,0.0
2644,8.55,0.71,4.51,-0.67,0.06,-0.08,0.0
2645,9.76,0.59,5.69,-0.69,0.07,-0.02,0.0
2646,11.05,1.45,5.53,-0.54,0.18,0.01,0.0
2647,8.68,0.87,4.25,-0.62,-0.05,0.01,0.0
2648,9.65,1.05,5.49,-0.57,-0.0,0.01,0.0
2649,11.16,0.87,5.22,-0.59,0.14,0.0,0.0
2650,9.55,0.15,4.47,-0.69,-0.07,-0.02,0.0
2651,9.94,0.45,5.24,-0.86,0.17,-0.08,0.0
2652,8.54,0.87,4.39,-0.72,0.05,0.02,0.0
2653,8.55,1.01,4.26,-0.49,0.05,-0.02,0.0
2654,9.49,1.47,5.44,-0.47,0.2,0.02,0.0
2655,10.89,0.95,4.74,-0.57,0.17,-0.02,0.0
2656,8.39,0.96,4.28,-0.44,0.06,0.07,0.0
2657,9.3,0.23,4.89,-0.7,-0.09,-0.08,0.0
2658,9.43,0.85,5.54,-0.73,0.19,-0.09,0.0
2659,8.99,-0.05,5.53,-0.71,0.25,0.03,0.0
2660,8.09,0.45,4.13,-0.78,0.25,0.08,0.0
2661,7.91,0.63,4.33,-0.72,-0.08,-0.0,0.0
2662,8.52,0.8,4.53,-0.66,0.02,-0.05,0.0
2663,9.88,1.43,5.39,-0.53,0.11,-0.1,0.0
2664,9.22,0.85,5.71,-0.52,0.18,-0.11,0.0
2665,8.61,1.02,4.42,-0.36,0.04,0.12,0.0
2666,9.22,0.3,4.48,-0.68,-0.08,-0.05,0.0
2667,8.72,0.43,4.42,-0.67,0.0,-0.02,0.0
2668,8.87,0.23,5.17,-0.64,0.21,0.04,0.0
2669,11.38,1.54,5.34,-0.62,0.16,-0.03,0.0
2670,8.37,0.2,3.96,-0.69,0.3,0.11,0.0
2671,8.3,1.02,4.37,-0.69,-0.04,0.03,0.0
2672,8.6,0.54,4.53,-0.54,-0.06,-0.05,0.0
2673,11.88,0.79,5.1,-0.62,0.19,-0.02,0.0
2674,11.17,-0.36,4.04,-0.44,-0.15,-0.0,0.0
2675,8.61,1.02,4.3,-0.41,0.03,0.06,0.0
2676,8.7,0.72,4.5,-0.7,-0.05,-0.02,0.0
2677,9.48,0.56,5.21,-0.79,0.13,-0.08,0.0
2678,9.07,0.32,5.39,-0.71,0.25,0.03,0.0
2679,8.1,0.39,3.61,-0.72,0.19,0.06,0.0
2680,8.25,0.95,4.36,-0.6,-0.04,0.0,0.0
2681,8.54,1.17,4.3,-0.53,0.0,0.01,0.0
2682,9.5,1.15,5.46,-0.49,0.11,-0.0,0.0
2683,8.46,0.86,4.41,-0.44,0.07,0.1,0.0
2684,9.46,0.35,4.27,-0.61,-0.11,-0.01,0.0
2685,8.79,0.53,4.56,-0.74,-0.04,-0.04,0.0
2686,10.96,1.45,5.78,-0.66,0.23,-0.08,0.0
2687,8.48,0.51,4.08,-0.74,0.33,0.09,0.0
2688,7.98,0.86,4.41,-0.64,0.01,0.03,0.0
2689,8.76,1.23,4.28,-0.58,-0.0,-0.06,0.0
2690,9.52,1.28,5.37,-0.45,0.13,0.06,0.0
2691,11.09,1.07,5.09,-0.44,0.23,0.02,0.0
2692,8.72,0.43,3.83,-0.45,0.24,-0.1,0.0
2693,8.5,0.67,4.44,-0.52,0.01,0.04,0.0
2694,8.72,0.55,4.56,-0.61,0.03,-0.03,0.0
2695,10.14,0.39,5.5,-0.68,0.15,-0.05,0.0
2696,8.6,0.95,4.65,-0.73,0.04,-0.03,0.0
2697,8.69,1.28,4.45,-0.62,-0.02,-0.02,0.0
2698,9.55,1.64,5.44,-0.56,0.16,-0.0,0.0
2699,11.35,1.16,5.35,-0.54,0.12,0.02,0.0
2700,8.53,0.88,4.36,-0.38,-0.03,0.11,0.0
2701,8.65,0.73,4.48,-0.67,0.09,-0.02,0.0
2702,9.66,0.51,5.63,-0.78,0.14,-0.08,0.0
2703,8.39,1.27,4.13,-0.61,-0.0,0.09,0.0
2704,8.8,1.26,4.72,-0.63,-0.04,0.04,0.0
2705,9.88,1.23,5.14,-0.53,0.13,-0.03,0.0
2706,10.72,0.96,5.86,-0.48,0.13,-0.09,0.0
2707,8.42,0.92,4.28,-0.53,0.05,0.03,0.0
2708,9.24,0.34,4.39,-0.65,-0.07,-0.11,0.0
2709,8.6,0.58,4.34,-0.64,-0.07,-0.05,0.0
2710,9.9,0.94,5.42,-0.62,0.1,-0.04,0.0
2711,9.46,0.51,5.59,-0.63,0.22,0.01,0.0
2712,10.88,1.28,5.25,-0.68,0.25,-0.01,0.0
2713,8.42,1.06,4.35,-0.65,0.01,0.03,0.0
2714,8.66,0.99,4.42,-0.57,-0.04,0.01,0.0
2715,11.62,0.87,5.26,-0.52,0.16,-0.02,0.0
2716,8.2,0.61,3.44,-0.43,0.2,-0.09,0.0
2717,8.69,0.83,4.4,-0.48,-0.01,0.06,0.0
2718,9.17,0.3,4.12,-0.71,-0.08,-0.08,0.0
2719,9.16,0.34,5.18,-0.66,0.17,0.02,0.0
2720,10.78,1.3,5.64,-0.59,0.16,-0.06,0.0
2721,8.18,0.19,3.67,-0.62,0.38,0.18,0.0
2722,8.44,0.42,4.47,-0.64,0.09,0.1,0.0
2723,8.74,0.79,4.25,-0.5,0.03,-0.01,0.0
2724,12.45,0.85,4.97,-0.53,0.14,-0.02,0.0
2725,11.85,-0.38,4.11,-0.61,-0.08,-0.09,0.0
2726,9.09,0.19,4.57,-0.79,-0.04,-0.13,0.0
2727,9.6,0.63,5.48,-0.74,0.18,-0.09,0.0
2728,9.49,0.63,5.23,-0.66,0.22,-0.02,0.0
2729,10.26,0.59,5.81,-0.69,0.1,-0.08,0.0
2730,8.44,0.85,4.47,-0.59,0.06,0.03,0.0
2731,8.77,1.03,4.53,-0.66,-0.04,-0.03,0.0
2732,9.03,1.3,5.54,-0.61,0.15,-0.04,0.0
2733,11.24,0.9,5.5,-0.53,0.02,-0.02,0.0
2734,8.77,0.91,3.79,-0.41,0.28,-0.12,0.0
2735,8.71,1.16,4.35,-0.46,0.07,0.07,0.0
2736,9.12,0.31,4.37,-0.68,-0.02,-0.07,0.0
2737,8.7,0.62,4.47,-0.7,-0.06,-0.05,0.0
2738,9.44,0.61,5.34,-0.71,0.14,-0.06,0.0
2739,9.22,0.1,5.14,-0.69,0.18,-0.0,0.0
2740,8.25,1.21,4.22,-0.57,0.01,0.01,0.0
2741,8.72,1.12,4.53,-0.63,0.01,-0.07,0.0
2742,9.48,1.39,5.43,-0.48,0.19,0.03,0.0
2743,10.07,1.29,6.0,-0.48,0.24,-0.04,0.0
2744,8.49,0.4,4.02,-0.53,0.24,-0.07,0.0
2745,8.51,0.69,4.55,-0.43,0.06,0.14,0.0
2746,9.19,0.45,4.62,-0.65,-0.06,-0.08,0.0
2747,8.55,0.5,4.57,-0.68,0.0,-0.06,0.0
2748,9.63,0.75,5.52,-0.64,0.17,-0.05,0.0
2749,9.51,0.71,5.6,-0.61,0.22,-0.01,0.0
2750,9.0,0.35,5.66,-0.61,0.24,0.03,0.0
2751,11.15,1.26,5.54,-0.58,0.18,-0.06,0.0
2752,8.26,0.84,4.4,-0.71,-0.0,-0.02,0.0
2753,8.76,0.86,4.25,-0.6,-0.06,-0.06,0.0
2754,9.29,1.37,5.77,-0.73,0.2,-0.11,0.0
2755,8.51,0.8,4.64,-0.48,0.09,0.06,0.0
2756,9.82,0.21,4.58,-0.72,-0.14,-0.09,0.0
2757,8.63,0.73,4.55,-0.7,0.0,-0.03,0.0
2758,9.55,0.81,5.54,-0.72,0.17,-0.07,0.0
2759,8.69,1.16,4.62,-0.53,0.04,0.06,0.0
2760,10.12,1.27,5.24,-0.57,0.01,0.02,0.0
2761,9.64,1.1,5.71,-0.6,0.21,-0.11,0.0
2762,10.72,0.96,5.85,-0.47,0.24,-0.05,0.0
2763,8.5,1.09,4.25,-0.4,0.11,0.09,0.0
2764,8.58,0.52,4.35,-0.82,-0.07,-0.14,0.0
2765,9.81,0.49,5.22,-0.77,0.14,-0.09,0.0
2766,9.73,0.25,5.73,-0.73,0.13,0.0,0.0
2767,11.24,1.0,5.61,-0.63,0.18,-0.02,0.0
2768,8.12,0.68,4.34,-0.69,-0.07,-0.05,0.0
2769,8.79,1.08,4.22,-0.48,-0.11,0.03,0.0
2770,11.13,0.86,4.89,-0.4,0.33,0.13,0.0
2771,11.46,0.26,3.96,-0.39,-0.28,-0.04,0.0
2772,8.13,0.46,4.08,-0.46,0.04,0.04,0.0
2773,9.43,0.15,4.42,-0.87,-0.11,-0.19,0.0
2774,8.8,0.54,4.11,-0.78,-0.03,-0.12,0.0
2775,9.9,0.55,5.19,-0.76,0.11,-0.11,0.0
2776,9.55,0.11,5.09,-0.67,0.25,-0.03,0.0
2777,11.22,0.98,5.34,-0.66,0.17,-0.11,0.0
2778,8.32,1.02,4.37,-0.71,0.01,-0.01,0.0
2779,8.75,1.3,4.06,-0.5,-0.09,0.04,0.0
2780,9.71,1.44,5.34,-0.58,0.13,-0.05,0.0
2781,10.95,0.95,5.13,-0.39,0.18,0.13,0.0
2782,8.43,1.1,3.94,-0.52,0.04,0.03,0.0
2783,9.45,0.41,4.32,-0.79,-0.03,-0.15,0.0
2784,8.84,0.57,3.93,-0.78,0.09,-0.04,0.0
2785,9.65,0.66,5.23,-0.81,0.14,-0.08,0.0
2786,10.8,0.69,5.06,-0.7,0.17,-0.06,0.0
2787,8.38,0.84,4.37,-0.62,0.07,0.02,0.0
2788,8.58,1.05,4.31,-0.44,0.14,0.05,0.0
2789,9.74,1.13,5.22,-0.52,0.18,-0.01,0.0
2790,9.53,1.05,5.5,-0.53,0.16,-0.01,0.0
2791,10.71,0.91,5.51,-0.49,0.18,0.05,0.0
2792,8.57,0.98,4.31,-0.55,0.04,0.07,0.0
2793,9.38,0.24,4.58,-0.83,-0.18,-0.16,0.0
2794,9.86,0.56,5.32,-0.68,0.12,-0.14,0.0
2795,10.62,0.92,5.51,-0.58,0.18,-0.02,0.0
2796,8.54,1.04,4.43,-0.77,0.02,-0.07,0.0
2797,9.4,0.86,5.22,-0.57,0.04,0.03,0.0
2798,9.33,1.27,5.62,-0.55,0.21,-0.03,0.0
2799,10.61,0.64,5.43,-0.4,0.13,0.05,0.0
2800,8.78,0.78,4.48,-0.4,0.02,0.07,0.0
2801,8.63,0.47,4.52,-0.64,0.0,-0.05,0.0
2802,9.59,0.79,5.48,-0.67,0.13,0.0,0.0
2803,8.41,1.09,4.57,-0.79,-0.15,-0.08,0.0
2804,8.77,1.28,4.25,-0.54,0.04,0.01,0.0
2805,8.52,1.29,4.52,-0.51,0.0,0.03,0.0
2806,9.94,1.3,5.23,-0.52,0.14,0.02,0.0
2807,8.21,0.97,4.54,-0.53,0.05,0.03,0.0
2808,9.04,0.18,4.65,-0.81,-0.04,-0.18,0.0
2809,8.65,0.61,4.71,-0.76,0.01,-0.11,0.0
2810,9.81,0.58,5.62,-0.67,0.17,-0.02,0.0
2811,7.92,0.94,4.52,-0.52,-0.03,0.03,0.0
2812,8.63,1.31,4.73,-0.55,0.03,-0.02,0.0
2813,9.36,1.45,5.48,-0.51,0.16,0.02,0.0
2814,11.32,1.1,5.07,-0.48,0.22,0.1,0.0
2815,8.36,0.95,4.72,-0.44,0.08,0.08,0.0
2816,8.85,0.33,4.75,-0.74,-0.04,-0.1,0.0
2817,9.76,0.56,5.68,-0.83,0.05,-0.11,0.0
2818,9.59,0.14,5.62,-0.71,0.14,-0.02,0.0
2819,8.36,1.0,4.45,-0.54,0.02,0.0,0.0
2820,9.88,1.24,5.43,-0.5,-0.02,-0.04,0.0
2821,11.17,0.9,5.39,-0.44,0.22,0.06,0.0
2822,8.43,0.93,4.64,-0.54,0.07,-0.02,0.0
2823,9.27,0.14,4.76,-0.86,-0.06,-0.2,0.0
2824,9.82,0.52,5.52,-0.77,0.08,-0.11,0.0
2825,10.56,1.35,5.88,-0.54,0.22,-0.09,0.0
2826,7.86,0.61,4.07,-0.65,0.37,0.08,0.0
2827,8.6,0.81,4.75,-0.53,-0.09,0.07,0.0
2828,8.8,0.97,4.65,-0.49,-0.05,0.0,0.0
2829,9.64,1.53,5.52,-0.56,0.08,-0.05,0.0
2830,9.21,1.24,5.8,-0.57,0.2,-0.05,0.0
2831,10.53,1.31,5.91,-0.58,0.12,0.07,0.0
2832,8.35,1.42,4.4,-0.58,0.13,0.05,0.0
2833,9.21,0.43,4.63,-0.82,-0.01,-0.09,0.0
2834,8.64,0.88,4.46,-0.73,0.06,0.0,0.0
2835,9.11,0.45,5.5,-0.75,0.01,-0.03,0.0
2836,9.39,0.35,5.69,-0.68,0.24,0.03,0.0
2837,8.07,0.92,4.12,-0.58,0.05,-0.04,0.0
2838,8.6,1.55,4.1,-0.42,0.03,0.0,0.0
2839,9.69,1.54,5.35,-0.41,0.11,0.08,0.0
2840,8.37,1.45,4.45,-0.43,0.05,0.08,0.0
2841,9.29,0.39,4.87,-0.68,-0.09,-0.07,0.0
2842,9.79,0.71,5.33,-0.75,0.09,-0.11,0.0
2843,9.4,0.34,5.78,-0.57,0.16,0.07,0.0
2844,8.49,0.8,4.32,-0.67,-0.01,-0.03,0.0
2845,8.7,0.99,4.4,-0.54,-0.05,0.07,0.0
2846,9.84,0.92,5.27,-0.42,-0.01,0.1,0.0
2847,9.64,1.23,5.41,-0.41,0.23,0.1,0.0
2848,11.09,1.17,5.11,-0.53,0.32,-0.04,0.0
2849,8.25,0.65,4.5,-0.35,0.18,0.0,0.0
2850,8.65,0.91,4.55,-0.79,0.01,-0.14,0.0
2851,9.64,0.95,5.39,-0.88,0.1,-0.15,0.0
2852,9.62,0.92,5.55,-0.86,0.18,-0.14,0.0
2853,8.99,0.14,5.72,-0.88,0.29,-0.08,0.0
2854,7.55,0.68,3.81,-0.64,0.21,0.09,0.0
2855,8.22,1.02,4.61,-0.73,-0.12,-0.06,0.0
2856,8.44,1.47,4.37,-0.62,-0.2,-0.02,0.0
2857,9.2,1.1,5.83,-0.49,0.2,-0.0,0.0
2858,11.17,1.14,5.04,-0.42,0.21,0.06,0.0
2859,8.64,0.96,4.24,-0.48,0.09,0.02,0.0
2860,8.61,0.49,4.67,-0.73,0.04,-0.02,0.0
2861,9.62,0.4,5.58,-0.52,0.09,0.07,0.0
2862,10.76,1.04,5.82,-0.69,0.11,-0.17,0.0
2863,8.43,1.03,4.6,-0.55,0.03,0.06,0.0
2864,8.64,1.02,4.22,-0.47,0.01,0.04,0.0
2865,9.73,1.43,5.61,-0.63,0.15,-0.09,0.0
2866,10.98,1.2,5.57,-0.49,0.16,-0.05,0.0
2867,11.73,0.32,4.3,-0.48,-0.3,-0.01,0.0
2868,8.31,0.86,4.57,-0.49,0.04,0.02,0.0
2869,9.35,0.3,4.78,-0.71,-0.09,-0.13,0.0
2870,8.46,0.76,4.6,-0.72,0.07,0.0,0.0
2871,9.6,0.85,5.66,-0.63,0.2,0.0,0.0
2872,9.13,0.18,5.78,-0.74,0.23,-0.03,0.0
2873,8.61,1.17,4.22,-0.48,-0.03,0.03,0.0
2874,10.16,1.31,4.92,-0.55,-0.03,-0.03,0.0
2875,9.6,1.06,5.55,-0.54,0.29,-0.09,0.0
2876,11.44,1.12,5.05,-0.45,0.34,0.04,0.0
2877,11.13,0.75,4.18,-0.39,-0.31,0.04,0.0
2878,8.23,0.95,4.12,-0.58,0.12,-0.01,0.0
2879,9.27,0.39,4.68,-0.82,-0.14,-0.17,0.0
2880,8.79,0.33,4.55,-0.85,-0.08,-0.11,0.0
2881,9.98,0.52,5.24,-0.84,0.03,-0.12,0.0
2882,9.45,0.07,5.32,-0.67,0.17,-0.0,0.0
2883,10.94,1.17,5.25,-0.61,0.19,-0.12,0.0
2884,8.04,0.91,4.25,-0.67,0.07,-0.01,0.0
2885,8.59,1.4,4.26,-0.5,0.05,0.04,0.0
2886,9.93,1.51,5.2,-0.64,0.18,-0.02,0.0
2887,9.58,1.39,5.66,-0.67,0.24,-0.06,0.0
2888,10.86,0.93,5.52,-0.53,0.16,0.02,0.0
2889,8.47,0.85,4.54,-0.52,0.08,0.08,0.0
2890,9.19,0.2,4.52,-0.68,-0.14,-0.14,0.0
2891,10.02,0.83,5.42,-0.6,0.21,-0.03,0.0
2892,8.47,1.1,4.29,-0.7,-0.05,-0.02,0.0
2893,8.58,1.0,4.13,-0.55,-0.04,0.01,0.0
2894,9.03,1.25,5.47,-0.54,0.16,-0.07,0.0
2895,11.26,0.92,5.32,-0.49,0.05,0.03,0.0
2896,11.48,-0.04,3.91,-0.53,-0.26,-0.08,0.0
2897,8.6,1.09,4.18,-0.42,0.13,0.07,0.0
2898,8.59,0.56,4.44,-0.76,0.01,-0.05,0.0
2899,9.83,0.85,5.35,-0.74,0.16,-0.12,0.0
2900,8.63,1.15,4.51,-0.46,-0.09,-0.03,0.0
2901,9.07,1.1,5.67,-0.54,0.16,-0.02,0.0
2902,11.11,0.92,5.53,-0.48,0.14,0.09,0.0
2903,8.4,0.96,4.4,-0.47,0.02,0.06,0.0
2904,9.37,0.37,4.62,-0.71,-0.07,-0.12,0.0
2905,8.66,0.78,4.22,-0.7,0.04,-0.03,0.0
2906,10.03,0.63,4.98,-0.7,0.12,-0.08,0.0
2907,10.96,1.27,5.6,-0.66,0.23,-0.11,0.0
2908,8.07,0.97,4.37,-0.57,-0.06,0.05,0.0
2909,8.66,1.43,4.41,-0.4,0.04,0.05,0.0
2910,10.12,1.22,5.23,-0.48,0.02,0.05,0.0
2911,9.53,1.3,5.43,-0.47,0.17,0.01,0.0
2912,11.04,1.12,5.19,-0.53,0.15,0.04,0.0
2913,8.46,0.88,4.26,-0.48,0.13,0.11,0.0
2914,9.63,0.23,4.47,-0.64,-0.08,-0.07,0.0
2915,8.61,0.75,4.38,-0.62,0.04,-0.03,0.0
2916,9.63,0.63,5.6,-0.71,0.16,-0.03,0.0
2917,8.33,0.82,4.49,-0.73,-0.04,-0.07,0.0
2918,8.79,1.16,4.32,-0.59,-0.04,-0.06,0.0
2919,10.14,1.33,5.26,-0.46,0.17,-0.02,0.0
2920,9.01,1.62,5.64,-0.5,0.28,-0.07,0.0
2921,11.23,1.42,5.21,-0.57,0.15,0.01,0.0
2922,8.14,1.08,4.58,-0.39,0.11,0.08,0.0
2923,9.6,0.35,4.52,-0.77,-0.04,-0.13,0.0
2924,9.38,0.45,5.36,-0.66,0.15,0.02,0.0
2925,9.33,0.04,5.54,-0.7,0.12,0.04,0.0
2926,8.23,0.92,4.32,-0.52,-0.02,0.07,0.0
2927,8.83,0.87,4.15,-0.42,-0.02,0.04,0.0
2928,9.57,1.25,5.1,-0.58,0.17,-0.01,0.0
2929,9.38,1.41,5.24,-0.63,0.2,-0.06,0.0
2930,9.25,1.46,5.4,-0.62,0.2,-0.09,0.0
2931,11.31,0.99,5.52,-0.6,0.18,0.05,0.0
2932,8.39,1.05,4.44,-0.34,0.06,0.12,0.0
2933,9.39,0.11,4.47,-0.64,-0.05,-0.06,0.0
2934,8.6,0.92,4.32,-0.66,0.02,-0.04,0.0
2935,9.76,0.63,5.46,-0.77,0.13,-0.12,0.0
2936,9.57,0.74,5.5,-0.78,0.24,-0.09,0.0
2937,10.88,1.21,5.64,-0.68,0.05,-0.19,0.0
2938,8.52,1.19,4.23,-0.56,0.01,0.01,0.0
2939,10.04,1.29,5.28,-0.55,0.13,0.02,0.0
2940,11.5,0.96,5.01,-0.46,0.22,0.06,0.0
2941,8.25,0.94,4.12,-0.47,0.12,0.03,0.0
2942,9.68,0.12,4.65,-0.69,-0.07,-0.11,0.0
2943,8.54,0.61,4.43,-0.54,0.11,0.02,0.0
2944,9.83,0.48,5.38,-0.57,0.14,0.01,0.0
2945,10.67,1.39,5.31,-0.69,0.26,-0.02,0.0
2946,8.25,0.32,3.78,-0.77,0.23,0.06,0.0
2947,8.3,0.96,4.45,-0.62,-0.1,-0.07,0.0
2948,9.9,1.86,5.15,-0.59,0.19,-0.04,0.0
2949,10.22,1.31,5.86,-0.57,0.24,-0.07,0.0
2950,7.75,0.23,3.63,-0.38,0.15,0.05,0.0
2951,8.51,0.73,4.16,-0.44,0.07,0.11,0.0
2952,9.61,0.21,4.49,-0.79,-0.16,-0.11,0.0
2953,9.03,0.56,4.66,-0.81,-0.02,-0.08,0.0
2954,9.25,0.9,5.29,-0.7,0.18,-0.13,0.0
2955,8.27,1.07,4.18,-0.7,-0.05,-0.0,0.0
2956,8.51,1.36,4.15,-0.52,0.04,-0.02,0.0
2957,9.99,1.39,5.34,-0.61,0.05,-0.01,0.0
2958,10.96,0.72,5.47,-0.42,0.16,0.15,0.0
2959,8.38,0.91,4.29,-0.46,0.01,0.09,0.0
2960,8.56,0.68,4.54,-0.71,0.03,0.01,0.0
2961,10.03,0.45,5.38,-0.72,0.1,-0.03,0.0
2962,11.62,1.24,5.54,-0.75,0.22,-0.15,0.0
2963,8.35,0.98,4.22,-0.59,-0.07,-0.03,0.0
2964,8.77,1.06,4.1,-0.53,-0.08,0.01,0.0
2965,9.89,1.42,5.24,-0.64,0.17,-0.06,0.0
2966,9.35,1.51,5.27,-0.63,0.21,-0.12,0.0
